AccX,AccY,AccZ,GyroX,GyroY,GyroZ
351.00,470.00,-4414.00,29.00,10.00,-27.00
364.00,449.00,-4425.00,41.00,8.00,-32.00
352.00,477.00,-4408.00,38.00,-3.00,-28.00
352.00,437.00,-4388.00,38.00,5.00,-35.00
331.00,431.00,-4407.00,39.00,-1.00,-28.00
318.00,466.00,-4402.00,40.00,5.00,-23.00
320.00,448.00,-4393.00,26.00,8.00,-38.00
362.00,448.00,-4395.00,40.00,10.00,-23.00
351.00,447.00,-4407.00,42.00,-1.00,-38.00
377.00,437.00,-4419.00,39.00,5.00,-27.00
330.00,441.00,-4397.00,30.00,3.00,-31.00
359.00,440.00,-4415.00,32.00,8.00,-20.00
336.00,446.00,-4405.00,47.00,2.00,-26.00
363.00,462.00,-4388.00,48.00,-3.00,-25.00
351.00,442.00,-4396.00,39.00,2.00,-38.00
365.00,443.00,-4453.00,26.00,-4.00,-29.00
370.00,452.00,-4430.00,37.00,10.00,-27.00
349.00,459.00,-4421.00,29.00,6.00,-25.00
339.00,439.00,-4432.00,38.00,3.00,-22.00
366.00,479.00,-4399.00,40.00,4.00,-28.00
342.00,437.00,-4433.00,28.00,10.00,-14.00
342.00,458.00,-4397.00,38.00,8.00,-35.00
340.00,470.00,-4406.00,38.00,-4.00,-28.00
362.00,462.00,-4399.00,31.00,1.00,-30.00
357.00,464.00,-4421.00,29.00,3.00,-25.00
334.00,444.00,-4396.00,38.00,14.00,-25.00
349.00,461.00,-4431.00,28.00,1.00,-49.00
346.00,458.00,-4391.00,38.00,13.00,-27.00
343.00,458.00,-4425.00,49.00,8.00,-34.00
340.00,440.00,-4398.00,36.00,15.00,-25.00
367.00,443.00,-4415.00,36.00,8.00,-38.00
360.00,454.00,-4428.00,34.00,10.00,-17.00
356.00,474.00,-4405.00,31.00,2.00,-24.00
373.00,428.00,-4396.00,40.00,7.00,-24.00
346.00,454.00,-4409.00,29.00,4.00,-24.00
339.00,468.00,-4415.00,48.00,-2.00,-30.00
332.00,439.00,-4420.00,38.00,2.00,-27.00
346.00,442.00,-4408.00,50.00,-2.00,-21.00
358.00,428.00,-4414.00,48.00,13.00,-24.00
369.00,457.00,-4381.00,35.00,6.00,-26.00
342.00,453.00,-4430.00,24.00,5.00,-20.00
339.00,439.00,-4426.00,51.00,9.00,-28.00
369.00,475.00,-4408.00,44.00,14.00,-28.00
331.00,454.00,-4402.00,31.00,6.00,-21.00
361.00,453.00,-4408.00,34.00,4.00,-41.00
343.00,448.00,-4403.00,34.00,2.00,-24.00
346.00,458.00,-4433.00,41.00,13.00,-36.00
354.00,451.00,-4437.00,33.00,9.00,-30.00
342.00,455.00,-4410.00,39.00,6.00,-27.00
334.00,450.00,-4406.00,26.00,-6.00,-33.00
353.00,457.00,-4396.00,33.00,9.00,-29.00
344.00,479.00,-4381.00,38.00,3.00,-29.00
334.00,453.00,-4400.00,43.00,11.00,-21.00
364.00,460.00,-4387.00,34.00,14.00,-38.00
366.00,437.00,-4391.00,43.00,17.00,-22.00
358.00,439.00,-4403.00,49.00,9.00,-26.00
349.00,472.00,-4425.00,45.00,2.00,-28.00
355.00,447.00,-4385.00,35.00,10.00,-26.00
341.00,459.00,-4398.00,36.00,10.00,-32.00
375.00,460.00,-4392.00,38.00,12.00,-18.00
339.00,463.00,-4425.00,33.00,5.00,-25.00
325.00,459.00,-4411.00,34.00,9.00,-27.00
351.00,429.00,-4381.00,35.00,10.00,-27.00
349.00,430.00,-4444.00,37.00,-3.00,-37.00
362.00,446.00,-4420.00,39.00,0.00,-34.00
374.00,452.00,-4423.00,27.00,6.00,-35.00
381.00,453.00,-4440.00,39.00,8.00,-22.00
359.00,458.00,-4391.00,51.00,14.00,-28.00
350.00,453.00,-4417.00,33.00,4.00,-42.00
330.00,444.00,-4385.00,36.00,6.00,-13.00
344.00,459.00,-4423.00,47.00,6.00,-23.00
360.00,446.00,-4414.00,36.00,4.00,-37.00
342.00,452.00,-4388.00,43.00,3.00,-33.00
356.00,445.00,-4413.00,43.00,2.00,-43.00
352.00,458.00,-4396.00,49.00,9.00,-25.00
340.00,454.00,-4378.00,31.00,10.00,-31.00
370.00,459.00,-4406.00,35.00,4.00,-36.00
338.00,449.00,-4409.00,47.00,6.00,-26.00
349.00,452.00,-4388.00,69.00,-1.00,-34.00
362.00,468.00,-4407.00,36.00,-6.00,-24.00
356.00,486.00,-4390.00,-6.00,22.00,-37.00
356.00,456.00,-4422.00,49.00,10.00,-32.00
364.00,436.00,-4391.00,86.00,-16.00,-31.00
343.00,437.00,-4396.00,49.00,11.00,-24.00
327.00,442.00,-4371.00,-36.00,27.00,-31.00
367.00,471.00,-4401.00,22.00,14.00,-26.00
377.00,437.00,-4395.00,110.00,-18.00,-30.00
332.00,440.00,-4408.00,80.00,-5.00,-27.00
368.00,453.00,-4428.00,-18.00,36.00,-21.00
341.00,429.00,-4412.00,-3.00,28.00,-22.00
359.00,452.00,-4393.00,77.00,-5.00,-37.00
343.00,442.00,-4399.00,87.00,-10.00,-31.00
344.00,444.00,-4415.00,16.00,21.00,-34.00
331.00,455.00,-4399.00,-29.00,30.00,-24.00
384.00,458.00,-4395.00,47.00,9.00,-27.00
361.00,459.00,-4388.00,85.00,-27.00,-30.00
356.00,464.00,-4403.00,52.00,-1.00,-32.00
388.00,439.00,-4399.00,-16.00,22.00,-30.00
333.00,458.00,-4388.00,17.00,16.00,-21.00
365.00,462.00,-4399.00,67.00,5.00,-14.00
363.00,428.00,-4384.00,84.00,-13.00,-35.00
354.00,453.00,-4418.00,33.00,14.00,-16.00
356.00,437.00,-4416.00,2.00,17.00,-44.00
342.00,441.00,-4414.00,30.00,2.00,-26.00
363.00,463.00,-4404.00,78.00,-18.00,-41.00
347.00,444.00,-4444.00,58.00,-1.00,-21.00
346.00,462.00,-4397.00,4.00,12.00,-18.00
338.00,452.00,-4447.00,11.00,15.00,-23.00
334.00,453.00,-4403.00,50.00,-3.00,-23.00
345.00,435.00,-4359.00,73.00,1.00,-24.00
338.00,455.00,-4434.00,41.00,-4.00,-23.00
340.00,444.00,-4418.00,-1.00,11.00,-24.00
333.00,447.00,-4382.00,18.00,11.00,-25.00
356.00,455.00,-4412.00,72.00,2.00,-38.00
342.00,469.00,-4393.00,62.00,10.00,-22.00
336.00,463.00,-4432.00,10.00,11.00,-36.00
346.00,439.00,-4391.00,15.00,15.00,-26.00
378.00,450.00,-4399.00,32.00,-3.00,-26.00
358.00,450.00,-4413.00,67.00,-9.00,-26.00
332.00,444.00,-4393.00,42.00,4.00,-29.00
343.00,469.00,-4424.00,10.00,11.00,-36.00
344.00,459.00,-4417.00,28.00,15.00,-22.00
346.00,459.00,-4446.00,52.00,-8.00,-21.00
344.00,455.00,-4421.00,55.00,2.00,-20.00
344.00,451.00,-4390.00,19.00,5.00,-22.00
337.00,428.00,-4430.00,7.00,13.00,-31.00
351.00,441.00,-4403.00,30.00,7.00,-26.00
344.00,448.00,-4415.00,54.00,0.00,-37.00
344.00,446.00,-4384.00,58.00,10.00,-41.00
336.00,454.00,-4423.00,29.00,19.00,-34.00
341.00,456.00,-4438.00,24.00,12.00,-31.00
309.00,482.00,-4399.00,44.00,-5.00,-22.00
351.00,443.00,-4412.00,45.00,-6.00,-28.00
351.00,458.00,-4423.00,31.00,15.00,-26.00
315.00,480.00,-4377.00,16.00,38.00,-21.00
313.00,452.00,-4418.00,7.00,-4.00,-26.00
349.00,426.00,-4429.00,43.00,15.00,-21.00
354.00,457.00,-4400.00,33.00,-6.00,-32.00
314.00,457.00,-4442.00,15.00,16.00,-29.00
324.00,505.00,-4416.00,16.00,28.00,-22.00
357.00,477.00,-4376.00,38.00,0.00,-27.00
315.00,450.00,-4386.00,75.00,6.00,-20.00
340.00,434.00,-4404.00,16.00,-3.00,-25.00
333.00,461.00,-4389.00,11.00,23.00,-20.00
337.00,449.00,-4399.00,45.00,9.00,-29.00
374.00,442.00,-4401.00,58.00,-1.00,-35.00
353.00,447.00,-4387.00,52.00,3.00,-26.00
335.00,427.00,-4400.00,28.00,12.00,-18.00
344.00,460.00,-4421.00,19.00,-2.00,-31.00
342.00,457.00,-4395.00,41.00,2.00,-17.00
371.00,440.00,-4398.00,47.00,5.00,-33.00
352.00,454.00,-4416.00,40.00,9.00,-25.00
369.00,485.00,-4400.00,39.00,1.00,-23.00
355.00,453.00,-4393.00,32.00,1.00,-25.00
338.00,471.00,-4426.00,50.00,-1.00,-20.00
318.00,451.00,-4364.00,42.00,-8.00,-44.00
365.00,440.00,-4397.00,36.00,1.00,-19.00
368.00,439.00,-4392.00,21.00,10.00,-17.00
353.00,449.00,-4409.00,27.00,10.00,-17.00
337.00,448.00,-4418.00,45.00,-3.00,-19.00
345.00,462.00,-4429.00,32.00,6.00,-35.00
374.00,470.00,-4414.00,24.00,17.00,-28.00
347.00,444.00,-4401.00,12.00,2.00,-32.00
335.00,472.00,-4412.00,39.00,12.00,-18.00
353.00,438.00,-4421.00,55.00,5.00,-27.00
342.00,457.00,-4401.00,24.00,-4.00,-25.00
357.00,463.00,-4381.00,15.00,2.00,-28.00
363.00,452.00,-4417.00,46.00,3.00,-31.00
332.00,434.00,-4386.00,49.00,0.00,-27.00
359.00,448.00,-4432.00,53.00,3.00,-37.00
344.00,439.00,-4387.00,26.00,14.00,-20.00
347.00,463.00,-4421.00,36.00,7.00,-27.00
328.00,441.00,-4377.00,42.00,13.00,-37.00
356.00,452.00,-4421.00,42.00,9.00,-29.00
336.00,444.00,-4401.00,17.00,6.00,-24.00
376.00,451.00,-4374.00,26.00,14.00,-28.00
345.00,442.00,-4431.00,27.00,1.00,-29.00
346.00,461.00,-4401.00,40.00,4.00,-31.00
330.00,476.00,-4395.00,34.00,3.00,-24.00
360.00,450.00,-4410.00,37.00,5.00,-19.00
359.00,439.00,-4398.00,20.00,15.00,-33.00
372.00,430.00,-4410.00,31.00,-1.00,-18.00
340.00,438.00,-4426.00,53.00,4.00,-30.00
365.00,447.00,-4403.00,34.00,-1.00,-20.00
351.00,455.00,-4403.00,24.00,17.00,-20.00
330.00,441.00,-4345.00,34.00,18.00,-32.00
370.00,480.00,-4370.00,401.00,-187.00,-334.00
350.00,424.00,-4421.00,706.00,-246.00,-162.00
418.00,404.00,-4429.00,127.00,-65.00,-291.00
313.00,415.00,-4383.00,97.00,-48.00,-327.00
346.00,474.00,-4414.00,505.00,-184.00,-271.00
302.00,441.00,-4417.00,261.00,-127.00,-222.00
344.00,429.00,-4412.00,116.00,-123.00,-225.00
349.00,461.00,-4423.00,131.00,-74.00,1.00
327.00,401.00,-4436.00,-180.00,82.00,101.00
316.00,414.00,-4396.00,-539.00,189.00,93.00
339.00,433.00,-4388.00,-235.00,51.00,243.00
235.00,444.00,-4381.00,79.00,-195.00,242.00
297.00,441.00,-4409.00,95.00,-309.00,218.00
296.00,442.00,-4423.00,111.00,-414.00,180.00
320.00,433.00,-4393.00,308.00,-701.00,228.00
411.00,412.00,-4470.00,231.00,-834.00,326.00
127.00,415.00,-4452.00,-33.00,-955.00,-56.00
442.00,444.00,-4397.00,-307.00,-983.00,197.00
192.00,440.00,-4382.00,-197.00,-1254.00,-98.00
143.00,466.00,-4362.00,-70.00,-924.00,-173.00
435.00,423.00,-4397.00,133.00,-1026.00,-135.00
317.00,442.00,-4351.00,656.00,-1074.00,-214.00
216.00,497.00,-4367.00,1037.00,-1309.00,-104.00
180.00,429.00,-4371.00,1290.00,-1385.00,-30.00
-268.00,391.00,-4409.00,1377.00,-1203.00,-138.00
181.00,413.00,-4348.00,1217.00,-1149.00,-361.00
379.00,453.00,-4321.00,1352.00,-1060.00,-366.00
194.00,388.00,-4270.00,1858.00,-1395.00,-283.00
320.00,346.00,-4580.00,2448.00,-1515.00,-100.00
188.00,356.00,-4490.00,2223.00,-1272.00,191.00
37.00,365.00,-4504.00,2471.00,-1420.00,322.00
145.00,361.00,-4475.00,2881.00,-1477.00,498.00
-59.00,611.00,-4409.00,2202.00,-1484.00,699.00
91.00,434.00,-4598.00,1629.00,-1397.00,967.00
-42.00,525.00,-4509.00,890.00,-1498.00,1226.00
-147.00,754.00,-4369.00,341.00,-1735.00,1613.00
39.00,379.00,-4569.00,392.00,-1987.00,2241.00
26.00,652.00,-4491.00,259.00,-1925.00,2718.00
143.00,371.00,-4507.00,-518.00,-1863.00,3271.00
54.00,100.00,-4607.00,320.00,-1751.00,3648.00
-30.00,-12.00,-4687.00,1256.00,-1559.00,3690.00
-69.00,-85.00,-4755.00,1957.00,-1221.00,3404.00
-47.00,-108.00,-4776.00,2206.00,-803.00,3015.00
-89.00,-144.00,-4715.00,2262.00,-512.00,2563.00
71.00,-224.00,-4649.00,2008.00,-427.00,2105.00
36.00,-373.00,-4654.00,1924.00,-490.00,1550.00
10.00,-375.00,-4727.00,1781.00,-583.00,898.00
27.00,-372.00,-4819.00,1719.00,-610.00,242.00
4.00,-222.00,-4880.00,1493.00,-508.00,-333.00
-70.00,-55.00,-4900.00,973.00,-319.00,-746.00
-76.00,72.00,-4859.00,618.00,-24.00,-894.00
-143.00,184.00,-4859.00,240.00,152.00,-798.00
-201.00,292.00,-4759.00,-124.00,232.00,-682.00
-5.00,288.00,-4722.00,-496.00,438.00,-350.00
-213.00,272.00,-4579.00,-640.00,477.00,-104.00
-140.00,176.00,-4516.00,-116.00,335.00,173.00
-101.00,155.00,-4591.00,424.00,174.00,475.00
186.00,183.00,-4693.00,1014.00,468.00,963.00
34.00,334.00,-4632.00,919.00,1173.00,1501.00
-230.00,154.00,-4442.00,728.00,1473.00,1715.00
-45.00,28.00,-4215.00,1169.00,1285.00,1912.00
-142.00,41.00,-4070.00,1150.00,828.00,1990.00
-237.00,-68.00,-4011.00,1089.00,350.00,1997.00
-147.00,-96.00,-3948.00,1616.00,-135.00,2144.00
-50.00,-89.00,-3957.00,1871.00,-549.00,2299.00
-175.00,-270.00,-4102.00,1944.00,-925.00,2275.00
98.00,-417.00,-4269.00,1749.00,-1221.00,1997.00
-194.00,-518.00,-4470.00,1441.00,-1129.00,1394.00
-29.00,-574.00,-4558.00,1103.00,-826.00,548.00
88.00,-388.00,-4540.00,1512.00,-609.00,138.00
280.00,-109.00,-4445.00,1490.00,-503.00,193.00
-156.00,89.00,-4328.00,1301.00,-573.00,477.00
-301.00,256.00,-4198.00,1217.00,-866.00,779.00
-182.00,462.00,-4238.00,1309.00,-1479.00,1587.00
-191.00,314.00,-4429.00,923.00,-1653.00,2454.00
-50.00,-84.00,-4507.00,1036.00,-1289.00,2987.00
-370.00,-442.00,-4447.00,921.00,-865.00,2693.00
-34.00,-577.00,-4249.00,997.00,-936.00,2172.00
-197.00,-414.00,-4262.00,1425.00,-1293.00,1997.00
-149.00,-421.00,-4276.00,654.00,-1507.00,1624.00
-294.00,-489.00,-4323.00,384.00,-1656.00,1190.00
37.00,-516.00,-4233.00,73.00,-1713.00,762.00
147.00,-502.00,-4369.00,59.00,-1582.00,524.00
-145.00,-471.00,-4422.00,416.00,-1377.00,409.00
-89.00,-477.00,-4403.00,663.00,-1245.00,162.00
-316.00,-382.00,-4422.00,1310.00,-1231.00,77.00
-286.00,-196.00,-4593.00,1589.00,-1095.00,32.00
-188.00,-12.00,-4590.00,1764.00,-926.00,306.00
-193.00,103.00,-4562.00,1941.00,-713.00,790.00
-179.00,138.00,-4505.00,2095.00,-636.00,1475.00
-130.00,-39.00,-4433.00,1661.00,-713.00,2013.00
-249.00,-387.00,-4250.00,1257.00,-844.00,1962.00
-159.00,-500.00,-4250.00,1697.00,-1226.00,1778.00
-148.00,-474.00,-4251.00,1635.00,-1676.00,1544.00
-162.00,-434.00,-4328.00,1527.00,-2145.00,1378.00
-434.00,-342.00,-4363.00,921.00,-2371.00,1168.00
-362.00,-320.00,-4450.00,396.00,-2592.00,1104.00
-167.00,-404.00,-4379.00,87.00,-2876.00,1174.00
-285.00,-533.00,-4541.00,-218.00,-2879.00,1072.00
-426.00,-623.00,-4508.00,117.00,-2657.00,765.00
-453.00,-549.00,-4479.00,233.00,-2386.00,398.00
-254.00,-487.00,-4439.00,548.00,-2264.00,285.00
-279.00,-330.00,-4338.00,989.00,-2235.00,457.00
-458.00,-241.00,-4451.00,683.00,-2300.00,648.00
-416.00,-260.00,-4424.00,185.00,-2496.00,851.00
-564.00,-375.00,-4517.00,-205.00,-2510.00,890.00
-539.00,-499.00,-4563.00,-80.00,-2409.00,900.00
-550.00,-526.00,-4519.00,479.00,-2251.00,858.00
-570.00,-462.00,-4376.00,659.00,-2177.00,743.00
-604.00,-476.00,-4391.00,556.00,-2234.00,570.00
-636.00,-451.00,-4306.00,342.00,-2378.00,366.00
-794.00,-385.00,-4269.00,-57.00,-2673.00,170.00
-772.00,-268.00,-4254.00,-888.00,-2870.00,45.00
-636.00,-244.00,-4308.00,-1187.00,-2977.00,177.00
-806.00,-197.00,-4336.00,-564.00,-2907.00,522.00
-878.00,-205.00,-4273.00,-106.00,-2730.00,800.00
-918.00,-198.00,-4304.00,409.00,-2561.00,1053.00
-975.00,-254.00,-4309.00,893.00,-2579.00,1229.00
-955.00,-280.00,-4291.00,929.00,-2568.00,1324.00
-982.00,-345.00,-4228.00,506.00,-2551.00,1250.00
-1004.00,-512.00,-4178.00,-171.00,-2705.00,990.00
-1003.00,-677.00,-4113.00,-493.00,-2872.00,546.00
-1075.00,-631.00,-4186.00,-667.00,-3052.00,41.00
-1131.00,-566.00,-4266.00,-837.00,-3027.00,-421.00
-1134.00,-355.00,-4253.00,-906.00,-2835.00,-708.00
-1198.00,-247.00,-4210.00,-717.00,-2595.00,-726.00
-1272.00,-67.00,-4102.00,-719.00,-2427.00,-569.00
-1304.00,24.00,-4053.00,-630.00,-2451.00,-245.00
-1320.00,127.00,-4003.00,-477.00,-2624.00,269.00
-1412.00,46.00,-3970.00,-846.00,-2828.00,704.00
-1371.00,-135.00,-3877.00,-1123.00,-3002.00,905.00
-1326.00,-255.00,-3872.00,-839.00,-3392.00,1033.00
-1409.00,-370.00,-3899.00,-1133.00,-3794.00,948.00
-1575.00,-507.00,-3930.00,-813.00,-4108.00,586.00
-1585.00,-406.00,-3951.00,-506.00,-4289.00,126.00
-1606.00,-213.00,-3954.00,-639.00,-4344.00,-137.00
-1756.00,-31.00,-3916.00,-617.00,-4310.00,-156.00
-1717.00,52.00,-3938.00,-479.00,-4212.00,37.00
-1690.00,25.00,-3869.00,-91.00,-4240.00,383.00
-1703.00,-16.00,-3932.00,512.00,-4343.00,728.00
-1767.00,-85.00,-3909.00,575.00,-4330.00,885.00
-1781.00,-200.00,-3932.00,606.00,-4212.00,834.00
-1844.00,-306.00,-3956.00,692.00,-3925.00,575.00
-1911.00,-266.00,-4034.00,567.00,-3567.00,164.00
-1908.00,-178.00,-3956.00,367.00,-3214.00,-184.00
-1956.00,-65.00,-3927.00,-46.00,-2868.00,-425.00
-1993.00,93.00,-3813.00,-210.00,-2588.00,-397.00
-2047.00,242.00,-3642.00,-78.00,-2409.00,-111.00
-2111.00,300.00,-3474.00,43.00,-2395.00,328.00
-2054.00,211.00,-3364.00,-55.00,-2699.00,838.00
-1970.00,-22.00,-3405.00,-204.00,-3188.00,1218.00
-1969.00,-339.00,-3611.00,-523.00,-3546.00,1155.00
-2017.00,-490.00,-3812.00,-648.00,-3624.00,707.00
-1955.00,-562.00,-3883.00,-425.00,-3547.00,224.00
-1899.00,-492.00,-3973.00,198.00,-3227.00,-65.00
-2035.00,-383.00,-3968.00,152.00,-2769.00,-331.00
-2120.00,-304.00,-3828.00,361.00,-2430.00,-549.00
-2152.00,-145.00,-3707.00,27.00,-2306.00,-626.00
-2167.00,-74.00,-3600.00,-84.00,-2394.00,-452.00
-2192.00,7.00,-3555.00,209.00,-2394.00,-170.00
-2258.00,97.00,-3461.00,25.00,-2485.00,142.00
-2303.00,-10.00,-3458.00,-512.00,-2651.00,301.00
-2309.00,-66.00,-3397.00,-481.00,-2812.00,496.00
-2160.00,-172.00,-3505.00,-488.00,-2879.00,587.00
-2267.00,-314.00,-3475.00,16.00,-2994.00,620.00
-2289.00,-306.00,-3481.00,-100.00,-3124.00,461.00
-2279.00,-376.00,-3476.00,-379.00,-3185.00,278.00
-2356.00,-323.00,-3491.00,73.00,-3274.00,220.00
-2327.00,-297.00,-3501.00,12.00,-3252.00,161.00
-2384.00,-332.00,-3505.00,-29.00,-3165.00,51.00
-2402.00,-316.00,-3508.00,-324.00,-3059.00,-175.00
-2447.00,-212.00,-3435.00,-410.00,-2904.00,-366.00
-2476.00,-163.00,-3376.00,-355.00,-2875.00,-404.00
-2488.00,-95.00,-3301.00,-66.00,-2907.00,-306.00
-2533.00,25.00,-3212.00,132.00,-2951.00,-78.00
-2566.00,21.00,-3193.00,-21.00,-3046.00,133.00
-2542.00,-92.00,-3111.00,194.00,-3218.00,338.00
-2571.00,-131.00,-3146.00,390.00,-3506.00,531.00
-2526.00,-237.00,-3220.00,302.00,-3656.00,537.00
-2591.00,-308.00,-3348.00,-68.00,-3679.00,377.00
-2702.00,-321.00,-3377.00,-659.00,-3681.00,4.00
-2765.00,-249.00,-3385.00,-888.00,-3641.00,-348.00
-2819.00,-88.00,-3360.00,-1060.00,-3468.00,-529.00
-2862.00,37.00,-3330.00,-843.00,-3349.00,-367.00
-2800.00,105.00,-3284.00,-617.00,-3197.00,-10.00
-2752.00,70.00,-3225.00,-716.00,-2982.00,412.00
-2709.00,-125.00,-3152.00,-1147.00,-2802.00,559.00
-2869.00,-257.00,-3110.00,-1446.00,-2706.00,432.00
-2830.00,-389.00,-3120.00,-1306.00,-2727.00,104.00
-2874.00,-248.00,-3149.00,-656.00,-2659.00,-108.00
-2925.00,-86.00,-3173.00,-124.00,-2445.00,-122.00
-3031.00,52.00,-3131.00,-19.00,-2246.00,-107.00
-3118.00,185.00,-3030.00,-189.00,-2136.00,-45.00
-3135.00,277.00,-2834.00,-745.00,-2259.00,44.00
-3147.00,312.00,-2737.00,-1220.00,-2715.00,306.00
-3088.00,141.00,-2907.00,-1826.00,-3086.00,537.00
-3002.00,-76.00,-3049.00,-1508.00,-3236.00,682.00
-2982.00,-198.00,-3230.00,-1158.00,-2979.00,618.00
-2982.00,-229.00,-3253.00,-574.00,-2447.00,447.00
-2990.00,-103.00,-3205.00,-492.00,-1977.00,310.00
-3124.00,-52.00,-3064.00,-697.00,-1744.00,179.00
-3111.00,12.00,-2927.00,-799.00,-1623.00,121.00
-3073.00,67.00,-2746.00,-1086.00,-1626.00,146.00
-3047.00,12.00,-2677.00,-1264.00,-1792.00,269.00
-3065.00,-110.00,-2710.00,-1217.00,-1995.00,289.00
-3067.00,-229.00,-2756.00,-831.00,-2037.00,87.00
-3005.00,-187.00,-2839.00,-222.00,-1963.00,-124.00
-3034.00,-10.00,-2869.00,-62.00,-1709.00,-265.00
-3041.00,55.00,-2865.00,-7.00,-1385.00,-316.00
-3097.00,151.00,-2703.00,507.00,-1108.00,-172.00
-3192.00,266.00,-2534.00,508.00,-1093.00,76.00
-3256.00,173.00,-2439.00,137.00,-1263.00,143.00
-3286.00,125.00,-2371.00,60.00,-1552.00,146.00
-3225.00,105.00,-2392.00,36.00,-1768.00,130.00
-3179.00,108.00,-2438.00,-93.00,-1889.00,161.00
-3155.00,19.00,-2372.00,-275.00,-1966.00,138.00
-3201.00,-28.00,-2435.00,-184.00,-2058.00,22.00
-3152.00,-96.00,-2405.00,-126.00,-2108.00,-180.00
-3174.00,-58.00,-2477.00,-280.00,-2136.00,-376.00
-3227.00,-37.00,-2542.00,-399.00,-2071.00,-603.00
-3254.00,68.00,-2472.00,-401.00,-2035.00,-699.00
-3319.00,112.00,-2581.00,-768.00,-2030.00,-755.00
-3294.00,122.00,-2542.00,-658.00,-1915.00,-723.00
-3365.00,158.00,-2530.00,-519.00,-1771.00,-617.00
-3348.00,137.00,-2535.00,-688.00,-1561.00,-584.00
-3403.00,89.00,-2471.00,-390.00,-1449.00,-537.00
-3410.00,120.00,-2453.00,71.00,-1380.00,-460.00
-3440.00,108.00,-2426.00,-65.00,-1261.00,-436.00
-3462.00,98.00,-2374.00,279.00,-1217.00,-316.00
-3413.00,101.00,-2340.00,249.00,-1189.00,-173.00
-3396.00,-55.00,-2381.00,327.00,-1240.00,-107.00
-3424.00,-111.00,-2461.00,366.00,-1256.00,-167.00
-3455.00,-92.00,-2561.00,176.00,-1102.00,-369.00
-3397.00,12.00,-2475.00,315.00,-846.00,-450.00
-3414.00,167.00,-2358.00,244.00,-696.00,-362.00
-3468.00,161.00,-2270.00,-29.00,-705.00,-244.00
-3447.00,118.00,-2193.00,98.00,-901.00,-82.00
-3448.00,100.00,-2234.00,-189.00,-1000.00,12.00
-3396.00,-23.00,-2320.00,-222.00,-1027.00,58.00
-3340.00,-30.00,-2331.00,-60.00,-892.00,60.00
-3336.00,-22.00,-2292.00,40.00,-756.00,50.00
-3357.00,-83.00,-2226.00,110.00,-682.00,-29.00
-3424.00,-23.00,-2187.00,354.00,-723.00,-130.00
-3436.00,49.00,-2155.00,144.00,-865.00,-227.00
-3481.00,90.00,-2130.00,118.00,-1115.00,-192.00
-3434.00,62.00,-2248.00,-3.00,-1222.00,-144.00
-3413.00,54.00,-2307.00,206.00,-1201.00,-79.00
-3468.00,27.00,-2331.00,57.00,-1058.00,-82.00
-3465.00,-17.00,-2303.00,53.00,-938.00,-119.00
-3463.00,-5.00,-2242.00,255.00,-856.00,-109.00
-3452.00,23.00,-2193.00,142.00,-787.00,-89.00
-3529.00,0.00,-2189.00,261.00,-798.00,-63.00
-3476.00,-18.00,-2266.00,371.00,-850.00,-76.00
-3560.00,6.00,-2296.00,391.00,-812.00,-135.00
-3553.00,27.00,-2322.00,300.00,-760.00,-178.00
-3612.00,101.00,-2362.00,306.00,-720.00,-184.00
-3559.00,162.00,-2368.00,261.00,-588.00,-74.00
-3548.00,218.00,-2295.00,180.00,-391.00,144.00
-3509.00,94.00,-2129.00,-49.00,-266.00,366.00
-3522.00,-38.00,-2015.00,41.00,-330.00,440.00
-3544.00,-100.00,-1982.00,-121.00,-558.00,347.00
-3532.00,-214.00,-2022.00,-113.00,-825.00,116.00
-3525.00,-157.00,-2178.00,168.00,-986.00,-100.00
-3499.00,-40.00,-2301.00,-42.00,-899.00,-238.00
-3523.00,1.00,-2329.00,34.00,-639.00,-250.00
-3503.00,79.00,-2270.00,318.00,-392.00,-137.00
-3502.00,132.00,-2160.00,85.00,-312.00,26.00
-3563.00,75.00,-2133.00,-58.00,-378.00,139.00
-3558.00,-7.00,-2107.00,29.00,-463.00,176.00
-3514.00,54.00,-2107.00,3.00,-457.00,222.00
-3468.00,-7.00,-2088.00,-309.00,-354.00,215.00
-3416.00,-131.00,-2071.00,-97.00,-314.00,220.00
-3463.00,-128.00,-2045.00,22.00,-353.00,104.00
-3483.00,-166.00,-2061.00,-119.00,-438.00,-105.00
-3541.00,-130.00,-2135.00,-21.00,-413.00,-366.00
-3565.00,36.00,-2164.00,260.00,-351.00,-462.00
-3522.00,178.00,-2172.00,49.00,-211.00,-382.00
-3507.00,159.00,-2137.00,-34.00,-116.00,-174.00
-3522.00,106.00,-2089.00,-93.00,13.00,-42.00
-3544.00,39.00,-2074.00,-112.00,98.00,29.00
-3603.00,5.00,-2058.00,-80.00,97.00,7.00
-3619.00,-42.00,-2087.00,-128.00,76.00,-57.00
-3595.00,-6.00,-2175.00,164.00,110.00,-65.00
-3611.00,97.00,-2245.00,212.00,286.00,-53.00
-3587.00,98.00,-2304.00,130.00,523.00,6.00
-3570.00,104.00,-2329.00,224.00,747.00,109.00
-3565.00,88.00,-2367.00,323.00,1053.00,222.00
-3576.00,126.00,-2310.00,493.00,1369.00,318.00
-3578.00,136.00,-2250.00,571.00,1596.00,459.00
-3546.00,112.00,-2142.00,522.00,1696.00,596.00
-3520.00,81.00,-2138.00,348.00,1709.00,695.00
-3423.00,-17.00,-2133.00,312.00,1742.00,758.00
-3377.00,-114.00,-2095.00,353.00,1763.00,703.00
-3389.00,-184.00,-2144.00,267.00,1786.00,504.00
-3360.00,-233.00,-2270.00,519.00,1911.00,232.00
-3320.00,-134.00,-2406.00,582.00,2211.00,7.00
-3340.00,-68.00,-2429.00,266.00,2536.00,-141.00
-3408.00,-91.00,-2458.00,192.00,2803.00,-295.00
-3373.00,0.00,-2408.00,314.00,3059.00,-378.00
-3431.00,61.00,-2275.00,-12.00,3217.00,-423.00
-3485.00,155.00,-2147.00,-327.00,3200.00,-453.00
-3499.00,163.00,-2061.00,-248.00,2995.00,-399.00
-3436.00,197.00,-2132.00,52.00,2694.00,-179.00
-3394.00,247.00,-2308.00,211.00,2503.00,114.00
-3270.00,168.00,-2446.00,278.00,2595.00,338.00
-3177.00,40.00,-2618.00,354.00,2871.00,447.00
-3045.00,-58.00,-2722.00,427.00,3308.00,456.00
-2953.00,-88.00,-2682.00,488.00,3836.00,422.00
-3076.00,-119.00,-2550.00,373.00,4243.00,307.00
-3066.00,-136.00,-2366.00,461.00,4302.00,127.00
-3227.00,-92.00,-2219.00,318.00,4059.00,-127.00
-3312.00,22.00,-2108.00,247.00,3599.00,-358.00
-3379.00,159.00,-2038.00,-100.00,3052.00,-452.00
-3331.00,237.00,-2143.00,-120.00,2427.00,-310.00
-3268.00,397.00,-2363.00,-218.00,1967.00,24.00
-3222.00,349.00,-2632.00,-445.00,1802.00,300.00
-3118.00,219.00,-2895.00,-321.00,1805.00,583.00
-3072.00,81.00,-3048.00,-412.00,2012.00,728.00
-3008.00,-112.00,-3115.00,89.00,2350.00,779.00
-3000.00,-67.00,-3136.00,628.00,2725.00,771.00
-3070.00,-79.00,-3032.00,777.00,3078.00,717.00
-3060.00,-13.00,-2932.00,1116.00,3299.00,717.00
-3063.00,-7.00,-2872.00,1039.00,3395.00,695.00
-3116.00,-93.00,-2825.00,978.00,3215.00,587.00
-3017.00,-58.00,-2721.00,1117.00,2820.00,463.00
-2903.00,-32.00,-2812.00,793.00,2577.00,422.00
-2939.00,-197.00,-2926.00,559.00,2376.00,229.00
-2926.00,-165.00,-3050.00,607.00,2309.00,-13.00
-2894.00,-153.00,-3169.00,533.00,2397.00,-189.00
-2850.00,-87.00,-3274.00,526.00,2574.00,-210.00
-2805.00,-78.00,-3322.00,451.00,2743.00,-121.00
-2821.00,-103.00,-3322.00,288.00,2914.00,-47.00
-2880.00,-201.00,-3334.00,186.00,3071.00,-194.00
-2817.00,-151.00,-3334.00,413.00,3200.00,-425.00
-2779.00,1.00,-3242.00,169.00,3327.00,-583.00
-2782.00,-7.00,-3137.00,-157.00,3330.00,-662.00
-2852.00,52.00,-3005.00,-328.00,3111.00,-653.00
-2875.00,136.00,-2967.00,-494.00,2801.00,-588.00
-2764.00,114.00,-3000.00,-626.00,2511.00,-427.00
-2742.00,61.00,-3087.00,-757.00,2288.00,-239.00
-2740.00,42.00,-3212.00,-603.00,2080.00,-118.00
-2660.00,10.00,-3289.00,-866.00,1945.00,-68.00
-2596.00,-80.00,-3373.00,-932.00,1942.00,-29.00
-2656.00,-180.00,-3565.00,-777.00,1983.00,-78.00
-2612.00,-173.00,-3712.00,-645.00,2128.00,-256.00
-2551.00,-109.00,-3806.00,-769.00,2493.00,-446.00
-2612.00,-27.00,-3868.00,-471.00,2984.00,-509.00
-2600.00,121.00,-3785.00,-436.00,3531.00,-485.00
-2510.00,111.00,-3642.00,-647.00,3883.00,-425.00
-2572.00,56.00,-3476.00,-456.00,3944.00,-394.00
-2526.00,55.00,-3330.00,-198.00,3886.00,-355.00
-2496.00,129.00,-3129.00,-301.00,3620.00,-292.00
-2567.00,177.00,-3020.00,-548.00,3091.00,-239.00
-2488.00,137.00,-3107.00,-621.00,2349.00,-146.00
-2402.00,237.00,-3305.00,-632.00,1804.00,73.00
-2500.00,352.00,-3527.00,-675.00,1622.00,344.00
-2376.00,355.00,-3671.00,-818.00,1491.00,697.00
-2351.00,316.00,-3818.00,-927.00,1397.00,1105.00
-2338.00,175.00,-4018.00,-900.00,1594.00,1328.00
-2296.00,136.00,-4113.00,-636.00,2208.00,1546.00
-2467.00,68.00,-4072.00,-792.00,2559.00,1281.00
-2392.00,112.00,-4052.00,-1341.00,2805.00,979.00
-2296.00,156.00,-3988.00,-1399.00,3036.00,896.00
-2088.00,345.00,-3869.00,-1093.00,3470.00,1220.00
-1990.00,257.00,-3689.00,-577.00,3858.00,1752.00
-1973.00,254.00,-3544.00,129.00,4191.00,2227.00
-1714.00,61.00,-3856.00,499.00,4767.00,2429.00
-2160.00,-276.00,-3844.00,236.00,5456.00,1830.00
-2589.00,-224.00,-3548.00,385.00,4774.00,611.00
-2364.00,231.00,-3439.00,-458.00,3413.00,-30.00
-1916.00,366.00,-3733.00,-1268.00,2590.00,113.00
-1768.00,215.00,-4156.00,-1078.00,2618.00,452.00
-1725.00,173.00,-4299.00,-534.00,3334.00,628.00
-1830.00,181.00,-4269.00,-502.00,3954.00,540.00
-1923.00,223.00,-4014.00,-842.00,4219.00,397.00
-1878.00,301.00,-3738.00,-1115.00,4069.00,265.00
-1768.00,376.00,-3535.00,-1347.00,3720.00,312.00
-1727.00,410.00,-3427.00,-1491.00,3196.00,522.00
-1744.00,429.00,-3446.00,-1219.00,2676.00,781.00
-1740.00,424.00,-3642.00,-982.00,2246.00,949.00
-1575.00,367.00,-3891.00,-1136.00,2046.00,1057.00
-1536.00,147.00,-4085.00,-1226.00,2132.00,911.00
-1391.00,5.00,-4197.00,-1178.00,2336.00,569.00
-1386.00,-14.00,-4276.00,-1258.00,2549.00,114.00
-1427.00,137.00,-4347.00,-1036.00,2911.00,-329.00
-1581.00,561.00,-4336.00,-551.00,3404.00,-373.00
-1626.00,891.00,-4268.00,-303.00,3682.00,88.00
-1548.00,955.00,-4065.00,-140.00,3873.00,795.00
-1627.00,849.00,-3831.00,371.00,3908.00,1446.00
-1490.00,652.00,-3674.00,862.00,3594.00,1979.00
-1429.00,407.00,-3702.00,1163.00,3193.00,2226.00
-1412.00,178.00,-3760.00,1264.00,2796.00,2029.00
-1391.00,-27.00,-4038.00,1184.00,2424.00,1412.00
-1326.00,107.00,-4292.00,1270.00,2457.00,818.00
-1296.00,322.00,-4404.00,1234.00,2818.00,546.00
-1318.00,523.00,-4360.00,1015.00,3127.00,582.00
-1366.00,515.00,-4331.00,739.00,3294.00,702.00
-1379.00,417.00,-4400.00,808.00,3405.00,722.00
-1187.00,412.00,-4462.00,758.00,3542.00,692.00
-1247.00,495.00,-4427.00,917.00,4098.00,826.00
-1066.00,420.00,-4243.00,769.00,4446.00,953.00
-1191.00,342.00,-4043.00,1394.00,4338.00,1142.00
-1101.00,279.00,-4053.00,1018.00,4004.00,1003.00
-1091.00,264.00,-4183.00,927.00,3834.00,704.00
-1025.00,248.00,-4280.00,759.00,3861.00,376.00
-988.00,330.00,-4213.00,890.00,3879.00,220.00
-945.00,324.00,-4324.00,618.00,3858.00,84.00
-784.00,233.00,-4408.00,707.00,3823.00,5.00
-799.00,233.00,-4346.00,872.00,3861.00,-110.00
-812.00,366.00,-4316.00,805.00,3795.00,-242.00
-724.00,482.00,-4332.00,513.00,3721.00,-120.00
-734.00,480.00,-4387.00,449.00,3676.00,106.00
-671.00,488.00,-4537.00,488.00,3810.00,370.00
-540.00,415.00,-4575.00,708.00,4055.00,580.00
-795.00,493.00,-4673.00,961.00,4544.00,884.00
-292.00,388.00,-4666.00,823.00,4974.00,1225.00
-511.00,77.00,-4523.00,1577.00,5457.00,1413.00
-495.00,81.00,-4261.00,1803.00,5679.00,1072.00
-309.00,73.00,-4020.00,1447.00,5490.00,766.00
-353.00,12.00,-3919.00,1417.00,4842.00,598.00
-304.00,25.00,-4082.00,1228.00,4170.00,295.00
-243.00,73.00,-4195.00,907.00,3852.00,71.00
-191.00,96.00,-4387.00,936.00,3675.00,-18.00
-147.00,104.00,-4479.00,660.00,3647.00,-121.00
-53.00,22.00,-4487.00,526.00,3732.00,-272.00
45.00,2.00,-4520.00,672.00,3900.00,-328.00
-94.00,119.00,-4445.00,795.00,4136.00,-392.00
-45.00,258.00,-4279.00,703.00,4266.00,-366.00
-31.00,289.00,-4164.00,590.00,4013.00,-219.00
-32.00,250.00,-4185.00,638.00,3759.00,-103.00
33.00,155.00,-4225.00,580.00,3562.00,-73.00
87.00,88.00,-4348.00,694.00,3428.00,-94.00
153.00,128.00,-4431.00,784.00,3423.00,-108.00
173.00,198.00,-4486.00,810.00,3518.00,-70.00
246.00,277.00,-4507.00,971.00,3692.00,121.00
251.00,330.00,-4451.00,1047.00,3863.00,410.00
176.00,238.00,-4437.00,887.00,3876.00,500.00
181.00,136.00,-4421.00,714.00,3911.00,423.00
160.00,6.00,-4364.00,538.00,3838.00,221.00
174.00,-12.00,-4368.00,299.00,3625.00,-109.00
173.00,114.00,-4448.00,106.00,3415.00,-420.00
317.00,301.00,-4516.00,-30.00,3355.00,-408.00
339.00,396.00,-4603.00,-16.00,3435.00,-161.00
479.00,430.00,-4602.00,-124.00,3690.00,241.00
532.00,337.00,-4585.00,-153.00,3936.00,661.00
603.00,186.00,-4574.00,-116.00,4112.00,923.00
634.00,-18.00,-4485.00,-4.00,4188.00,908.00
663.00,-67.00,-4503.00,70.00,4194.00,686.00
719.00,81.00,-4560.00,263.00,4370.00,628.00
799.00,153.00,-4598.00,151.00,4609.00,695.00
850.00,145.00,-4630.00,109.00,4785.00,786.00
845.00,117.00,-4619.00,-20.00,4974.00,832.00
909.00,-5.00,-4506.00,-58.00,5105.00,778.00
937.00,-90.00,-4525.00,106.00,5199.00,585.00
997.00,-112.00,-4531.00,41.00,5376.00,282.00
1070.00,-145.00,-4457.00,-37.00,5478.00,-17.00
1151.00,-136.00,-4441.00,91.00,5521.00,-258.00
1198.00,-48.00,-4413.00,357.00,5774.00,-348.00
1227.00,16.00,-4431.00,576.00,6157.00,-283.00
1251.00,93.00,-4376.00,942.00,6561.00,-155.00
1233.00,229.00,-4275.00,1321.00,6768.00,70.00
1273.00,250.00,-4080.00,1386.00,6660.00,333.00
1313.00,299.00,-3990.00,1679.00,6286.00,662.00
1348.00,252.00,-3972.00,1615.00,5757.00,857.00
1464.00,261.00,-4199.00,1118.00,5502.00,991.00
1592.00,218.00,-4517.00,1079.00,5786.00,1227.00
1643.00,113.00,-4614.00,798.00,6349.00,1402.00
1740.00,-69.00,-4516.00,436.00,6836.00,1346.00
1700.00,-328.00,-4275.00,440.00,7047.00,1029.00
1755.00,-385.00,-3983.00,531.00,6895.00,535.00
1744.00,-337.00,-3805.00,549.00,6602.00,91.00
1796.00,-256.00,-3665.00,645.00,6151.00,-174.00
1813.00,-80.00,-3611.00,739.00,5581.00,-281.00
1920.00,13.00,-3611.00,672.00,5057.00,-194.00
1978.00,68.00,-3557.00,455.00,4389.00,-101.00
2018.00,-19.00,-3534.00,119.00,3622.00,-94.00
1996.00,-116.00,-3609.00,17.00,2997.00,-206.00
2142.00,-107.00,-3635.00,-283.00,2649.00,-329.00
2277.00,-204.00,-3774.00,-239.00,2557.00,-349.00
2354.00,-224.00,-3918.00,9.00,2650.00,-340.00
2348.00,-211.00,-3957.00,175.00,2851.00,-406.00
2364.00,-144.00,-3968.00,366.00,3114.00,-403.00
2340.00,-37.00,-3885.00,554.00,3250.00,-358.00
2218.00,-4.00,-3842.00,561.00,3185.00,-344.00
2252.00,44.00,-3776.00,285.00,3078.00,-321.00
2370.00,-9.00,-3660.00,53.00,2769.00,-306.00
2432.00,-36.00,-3668.00,-110.00,2404.00,-324.00
2485.00,-95.00,-3690.00,-137.00,2173.00,-279.00
2392.00,-89.00,-3690.00,167.00,2107.00,-240.00
2463.00,28.00,-3684.00,297.00,2095.00,-130.00
2536.00,-8.00,-3689.00,295.00,2138.00,31.00
2559.00,-66.00,-3825.00,454.00,2278.00,112.00
2618.00,-52.00,-3890.00,451.00,2599.00,163.00
2611.00,-166.00,-3920.00,432.00,2920.00,90.00
2595.00,-132.00,-3927.00,490.00,3165.00,-80.00
2606.00,-79.00,-3852.00,338.00,3378.00,-199.00
2642.00,-62.00,-3849.00,305.00,3553.00,-216.00
2647.00,14.00,-3737.00,297.00,3653.00,-138.00
2597.00,53.00,-3691.00,270.00,3630.00,-21.00
2550.00,-11.00,-3563.00,209.00,3617.00,67.00
2672.00,-44.00,-3518.00,266.00,3629.00,111.00
2730.00,-71.00,-3544.00,289.00,3657.00,139.00
2812.00,-80.00,-3582.00,365.00,3805.00,190.00
2871.00,-143.00,-3636.00,453.00,4031.00,237.00
2837.00,-158.00,-3640.00,711.00,4358.00,244.00
2821.00,-174.00,-3541.00,843.00,4646.00,156.00
2823.00,-128.00,-3511.00,850.00,4761.00,-3.00
2869.00,-103.00,-3419.00,684.00,4730.00,-139.00
2895.00,-70.00,-3289.00,420.00,4507.00,-241.00
2899.00,-49.00,-3226.00,275.00,4236.00,-281.00
2954.00,-29.00,-3246.00,270.00,4074.00,-180.00
3025.00,-81.00,-3270.00,443.00,4032.00,-49.00
3076.00,-99.00,-3334.00,785.00,4177.00,130.00
3111.00,-80.00,-3372.00,987.00,4396.00,277.00
3101.00,-68.00,-3242.00,941.00,4582.00,413.00
3073.00,-110.00,-3040.00,746.00,4622.00,435.00
3090.00,-172.00,-2928.00,538.00,4396.00,379.00
3142.00,-230.00,-2811.00,386.00,4029.00,264.00
3176.00,-271.00,-2886.00,401.00,3745.00,158.00
3190.00,-268.00,-2865.00,524.00,3531.00,22.00
3301.00,-270.00,-2849.00,493.00,3336.00,-51.00
3359.00,-247.00,-2877.00,558.00,3159.00,-98.00
3310.00,-157.00,-2888.00,568.00,3127.00,-48.00
3310.00,-60.00,-2875.00,481.00,3137.00,71.00
3340.00,-68.00,-2857.00,417.00,3155.00,298.00
3421.00,-58.00,-2857.00,354.00,3209.00,577.00
3456.00,-141.00,-2786.00,429.00,3211.00,764.00
3435.00,-258.00,-2808.00,418.00,3185.00,801.00
3440.00,-368.00,-2785.00,372.00,3173.00,645.00
3461.00,-427.00,-2763.00,549.00,3122.00,362.00
3487.00,-376.00,-2634.00,458.00,3024.00,131.00
3573.00,-345.00,-2627.00,525.00,2859.00,-2.00
3523.00,-259.00,-2596.00,573.00,2731.00,-66.00
3554.00,-235.00,-2573.00,658.00,2626.00,-14.00
3613.00,-239.00,-2656.00,787.00,2639.00,50.00
3607.00,-235.00,-2706.00,841.00,2788.00,97.00
3652.00,-251.00,-2741.00,769.00,2933.00,91.00
3584.00,-224.00,-2731.00,722.00,3073.00,61.00
3568.00,-181.00,-2671.00,623.00,3246.00,97.00
3614.00,-167.00,-2546.00,485.00,3310.00,158.00
3689.00,-149.00,-2452.00,500.00,3285.00,259.00
3663.00,-99.00,-2454.00,470.00,3266.00,442.00
3649.00,-116.00,-2437.00,413.00,3303.00,646.00
3586.00,-160.00,-2401.00,429.00,3322.00,800.00
3568.00,-256.00,-2314.00,352.00,3226.00,841.00
3680.00,-342.00,-2283.00,297.00,3000.00,721.00
3737.00,-405.00,-2273.00,222.00,2784.00,589.00
3779.00,-450.00,-2348.00,439.00,2803.00,505.00
3727.00,-453.00,-2385.00,572.00,3029.00,431.00
3747.00,-402.00,-2325.00,565.00,3178.00,349.00
3763.00,-389.00,-2213.00,403.00,3264.00,293.00
3750.00,-372.00,-2096.00,378.00,3212.00,287.00
3795.00,-422.00,-2133.00,194.00,3123.00,192.00
3738.00,-420.00,-2116.00,213.00,3176.00,79.00
3788.00,-366.00,-2027.00,16.00,3194.00,-16.00
3794.00,-352.00,-1948.00,-130.00,3041.00,-68.00
3775.00,-358.00,-1867.00,95.00,2746.00,-80.00
3843.00,-376.00,-1762.00,194.00,2468.00,-41.00
3922.00,-402.00,-1945.00,351.00,2327.00,-6.00
3951.00,-426.00,-2013.00,447.00,2333.00,-61.00
3876.00,-427.00,-1988.00,489.00,2338.00,-223.00
3788.00,-338.00,-1912.00,302.00,2236.00,-414.00
3871.00,-331.00,-1783.00,96.00,2020.00,-524.00
3852.00,-260.00,-1659.00,-10.00,1731.00,-508.00
3860.00,-246.00,-1575.00,143.00,1386.00,-367.00
3835.00,-237.00,-1567.00,186.00,998.00,-244.00
3891.00,-322.00,-1631.00,265.00,779.00,-115.00
3971.00,-412.00,-1730.00,323.00,656.00,-123.00
4043.00,-455.00,-1834.00,275.00,596.00,-228.00
4050.00,-443.00,-1894.00,203.00,673.00,-326.00
4024.00,-340.00,-1957.00,207.00,826.00,-334.00
3997.00,-264.00,-1937.00,244.00,1028.00,-232.00
3957.00,-201.00,-1907.00,363.00,1205.00,-60.00
3961.00,-172.00,-1781.00,242.00,1266.00,122.00
3951.00,-269.00,-1766.00,90.00,1176.00,193.00
4005.00,-362.00,-1724.00,42.00,1124.00,246.00
4034.00,-473.00,-1755.00,182.00,1036.00,147.00
3999.00,-483.00,-1851.00,319.00,1033.00,-16.00
3994.00,-401.00,-1826.00,371.00,1066.00,-183.00
4037.00,-317.00,-1797.00,346.00,1068.00,-242.00
4017.00,-226.00,-1719.00,286.00,1067.00,-191.00
4000.00,-239.00,-1676.00,220.00,1046.00,-58.00
3986.00,-310.00,-1656.00,49.00,996.00,38.00
3964.00,-377.00,-1618.00,-10.00,876.00,34.00
4038.00,-384.00,-1641.00,-176.00,759.00,-58.00
4072.00,-375.00,-1746.00,41.00,660.00,-165.00
4036.00,-241.00,-1844.00,85.00,776.00,-159.00
3977.00,-176.00,-1828.00,189.00,948.00,-66.00
3963.00,-109.00,-1680.00,139.00,999.00,127.00
3920.00,-158.00,-1518.00,92.00,826.00,309.00
3893.00,-205.00,-1394.00,-37.00,459.00,429.00
3941.00,-344.00,-1413.00,-166.00,8.00,412.00
3962.00,-482.00,-1489.00,-115.00,-315.00,224.00
3986.00,-494.00,-1588.00,-93.00,-448.00,-82.00
4039.00,-416.00,-1589.00,-50.00,-479.00,-285.00
4013.00,-336.00,-1617.00,39.00,-507.00,-265.00
4030.00,-284.00,-1605.00,128.00,-489.00,-145.00
4017.00,-294.00,-1630.00,93.00,-417.00,0.00
4033.00,-338.00,-1598.00,141.00,-412.00,102.00
4048.00,-364.00,-1579.00,118.00,-479.00,78.00
4001.00,-398.00,-1610.00,135.00,-590.00,29.00
4004.00,-414.00,-1573.00,101.00,-670.00,-40.00
3979.00,-399.00,-1605.00,146.00,-792.00,-69.00
3975.00,-377.00,-1596.00,277.00,-885.00,-51.00
3978.00,-320.00,-1553.00,281.00,-1005.00,35.00
3985.00,-325.00,-1584.00,308.00,-1238.00,104.00
4024.00,-349.00,-1765.00,190.00,-1297.00,103.00
4035.00,-417.00,-1872.00,289.00,-1136.00,66.00
3947.00,-402.00,-1804.00,223.00,-1011.00,-62.00
3966.00,-338.00,-1743.00,211.00,-1041.00,-111.00
3926.00,-295.00,-1689.00,343.00,-1192.00,-27.00
3971.00,-285.00,-1733.00,154.00,-1222.00,36.00
3979.00,-265.00,-1858.00,226.00,-1199.00,133.00
3925.00,-295.00,-1880.00,258.00,-1102.00,210.00
3885.00,-313.00,-1824.00,204.00,-1061.00,244.00
3922.00,-301.00,-1783.00,75.00,-1109.00,303.00
3932.00,-270.00,-1786.00,0.00,-1191.00,352.00
3906.00,-300.00,-1820.00,-114.00,-1228.00,439.00
3871.00,-362.00,-1880.00,-74.00,-1222.00,495.00
3875.00,-525.00,-1955.00,-18.00,-1202.00,353.00
3882.00,-557.00,-1968.00,-38.00,-1151.00,9.00
3859.00,-599.00,-1922.00,-45.00,-1183.00,-353.00
3927.00,-534.00,-1857.00,195.00,-1249.00,-589.00
4014.00,-426.00,-1935.00,350.00,-1263.00,-650.00
4002.00,-312.00,-2092.00,467.00,-1073.00,-509.00
4005.00,-177.00,-2205.00,465.00,-704.00,-299.00
3915.00,-136.00,-2144.00,352.00,-392.00,-50.00
3915.00,-149.00,-1990.00,290.00,-304.00,188.00
3825.00,-273.00,-1810.00,184.00,-464.00,364.00
3746.00,-353.00,-1757.00,149.00,-786.00,362.00
3744.00,-444.00,-1628.00,-37.00,-1190.00,244.00
3706.00,-464.00,-1593.00,-77.00,-1700.00,87.00
3814.00,-484.00,-1607.00,-234.00,-2140.00,11.00
3919.00,-517.00,-1753.00,-139.00,-2461.00,-29.00
3956.00,-539.00,-1975.00,67.00,-2574.00,-70.00
3943.00,-576.00,-2168.00,391.00,-2353.00,-144.00
3961.00,-494.00,-2330.00,551.00,-1906.00,-274.00
3869.00,-392.00,-2207.00,673.00,-1602.00,-345.00
3800.00,-287.00,-2016.00,565.00,-1646.00,-312.00
3754.00,-254.00,-1938.00,525.00,-2002.00,-182.00
3666.00,-206.00,-1840.00,559.00,-2459.00,36.00
3695.00,-164.00,-1848.00,536.00,-3001.00,310.00
3752.00,-162.00,-1982.00,323.00,-3574.00,507.00
3715.00,-273.00,-2177.00,69.00,-3910.00,584.00
3653.00,-387.00,-2375.00,4.00,-3997.00,550.00
3659.00,-463.00,-2372.00,-87.00,-4020.00,356.00
3714.00,-567.00,-2371.00,-113.00,-4105.00,160.00
3808.00,-489.00,-2457.00,32.00,-4167.00,52.00
3831.00,-463.00,-2733.00,270.00,-4082.00,57.00
3740.00,-342.00,-2937.00,397.00,-3744.00,126.00
3666.00,-340.00,-3007.00,220.00,-3238.00,102.00
3643.00,-403.00,-2966.00,74.00,-2821.00,12.00
3596.00,-449.00,-2770.00,-66.00,-2684.00,-143.00
3483.00,-452.00,-2586.00,-124.00,-2789.00,-296.00
3443.00,-360.00,-2407.00,-401.00,-3155.00,-396.00
3420.00,-333.00,-2309.00,-602.00,-3660.00,-404.00
3442.00,-330.00,-2323.00,-770.00,-4150.00,-287.00
3481.00,-304.00,-2344.00,-790.00,-4583.00,-79.00
3535.00,-443.00,-2696.00,-682.00,-4802.00,24.00
3531.00,-566.00,-3017.00,-449.00,-4511.00,-69.00
3460.00,-577.00,-3139.00,-397.00,-3935.00,-348.00
3411.00,-529.00,-3033.00,-353.00,-3446.00,-613.00
3354.00,-386.00,-2922.00,-321.00,-3203.00,-747.00
3296.00,-238.00,-2790.00,-345.00,-3233.00,-658.00
3219.00,-235.00,-2719.00,-353.00,-3456.00,-493.00
3153.00,-299.00,-2752.00,-550.00,-3741.00,-453.00
3123.00,-417.00,-2733.00,-608.00,-4041.00,-592.00
3125.00,-406.00,-2735.00,-783.00,-4391.00,-751.00
3276.00,-398.00,-2736.00,-814.00,-4794.00,-835.00
3277.00,-425.00,-2912.00,-615.00,-5054.00,-870.00
3193.00,-337.00,-3196.00,-260.00,-4973.00,-823.00
3197.00,-222.00,-3269.00,-107.00,-4609.00,-681.00
3171.00,-272.00,-3360.00,-147.00,-4225.00,-576.00
3085.00,-313.00,-3384.00,-18.00,-3825.00,-543.00
3012.00,-371.00,-3257.00,-39.00,-3560.00,-643.00
2847.00,-374.00,-3125.00,77.00,-3654.00,-885.00
2791.00,-219.00,-2995.00,-57.00,-3983.00,-1052.00
2799.00,-132.00,-2977.00,-262.00,-4519.00,-1043.00
2820.00,-97.00,-3089.00,-608.00,-5103.00,-987.00
2807.00,-132.00,-3270.00,-903.00,-5625.00,-1055.00
2861.00,-138.00,-3496.00,-1311.00,-5934.00,-1151.00
2905.00,-226.00,-3703.00,-1547.00,-5834.00,-1227.00
2863.00,-203.00,-3871.00,-1566.00,-5511.00,-1246.00
2785.00,-140.00,-3929.00,-1289.00,-5015.00,-1172.00
2664.00,-39.00,-3880.00,-944.00,-4434.00,-903.00
2543.00,52.00,-3742.00,-717.00,-4161.00,-641.00
2479.00,31.00,-3717.00,-702.00,-4135.00,-477.00
2458.00,-27.00,-3655.00,-591.00,-4189.00,-355.00
2469.00,-121.00,-3663.00,-531.00,-4323.00,-378.00
2450.00,-216.00,-3787.00,-406.00,-4383.00,-584.00
2335.00,-154.00,-3878.00,-329.00,-4323.00,-840.00
2311.00,-53.00,-3832.00,-199.00,-4241.00,-948.00
2342.00,27.00,-3780.00,-361.00,-4266.00,-918.00
2272.00,17.00,-3725.00,-327.00,-4394.00,-832.00
2214.00,89.00,-3750.00,-334.00,-4512.00,-634.00
2201.00,78.00,-3790.00,-575.00,-4621.00,-425.00
2206.00,-17.00,-3871.00,-508.00,-4647.00,-314.00
2246.00,-107.00,-4005.00,-540.00,-4549.00,-388.00
2155.00,-176.00,-4126.00,-330.00,-4244.00,-546.00
2093.00,-137.00,-4058.00,20.00,-3910.00,-680.00
2017.00,-50.00,-3991.00,180.00,-3775.00,-748.00
1965.00,41.00,-3917.00,63.00,-3865.00,-794.00
1925.00,127.00,-3930.00,-115.00,-4022.00,-719.00
1876.00,108.00,-3951.00,-267.00,-4184.00,-587.00
1858.00,71.00,-3989.00,-275.00,-4264.00,-494.00
1826.00,12.00,-4051.00,-168.00,-4250.00,-426.00
1769.00,-15.00,-3991.00,-74.00,-4208.00,-334.00
1729.00,-111.00,-3953.00,191.00,-4262.00,-391.00
1713.00,-184.00,-4014.00,425.00,-4246.00,-519.00
1745.00,-96.00,-4066.00,529.00,-4206.00,-568.00
1777.00,-34.00,-4133.00,828.00,-4235.00,-554.00
1720.00,5.00,-4229.00,709.00,-4185.00,-519.00
1661.00,25.00,-4336.00,966.00,-4100.00,-478.00
1627.00,53.00,-4326.00,806.00,-3956.00,-405.00
1575.00,-2.00,-4312.00,693.00,-3811.00,-365.00
1543.00,-15.00,-4235.00,634.00,-3729.00,-378.00
1498.00,-67.00,-4249.00,513.00,-3742.00,-478.00
1478.00,-74.00,-4200.00,274.00,-3810.00,-607.00
1435.00,13.00,-4210.00,211.00,-3845.00,-620.00
1336.00,35.00,-4186.00,92.00,-3884.00,-599.00
1273.00,86.00,-4115.00,36.00,-3997.00,-520.00
1231.00,48.00,-4126.00,-79.00,-4207.00,-439.00
1278.00,-71.00,-4253.00,-78.00,-4269.00,-392.00
1344.00,-240.00,-4309.00,-112.00,-4221.00,-480.00
1315.00,-262.00,-4388.00,43.00,-4062.00,-643.00
1307.00,-218.00,-4508.00,326.00,-3872.00,-801.00
1249.00,-92.00,-4626.00,344.00,-3684.00,-882.00
1141.00,13.00,-4696.00,196.00,-3332.00,-821.00
1131.00,18.00,-4667.00,222.00,-2926.00,-688.00
1086.00,-58.00,-4582.00,470.00,-2626.00,-592.00
1078.00,-7.00,-4436.00,559.00,-2474.00,-497.00
949.00,-31.00,-4379.00,376.00,-2472.00,-431.00
941.00,-50.00,-4280.00,295.00,-2526.00,-318.00
921.00,-14.00,-4262.00,248.00,-2572.00,-216.00
858.00,-43.00,-4216.00,14.00,-2678.00,-78.00
847.00,-107.00,-4239.00,71.00,-2833.00,-13.00
834.00,-64.00,-4325.00,-47.00,-2911.00,-36.00
825.00,-65.00,-4410.00,-234.00,-2939.00,-74.00
775.00,-35.00,-4523.00,-317.00,-2862.00,-127.00
705.00,27.00,-4566.00,-391.00,-2690.00,-147.00
676.00,52.00,-4518.00,-546.00,-2580.00,-128.00
567.00,103.00,-4460.00,-687.00,-2608.00,-73.00
608.00,148.00,-4398.00,-837.00,-2644.00,20.00
625.00,90.00,-4388.00,-1005.00,-2738.00,131.00
629.00,41.00,-4386.00,-1131.00,-2811.00,162.00
650.00,-54.00,-4457.00,-1135.00,-2768.00,93.00
643.00,-121.00,-4533.00,-1109.00,-2557.00,-22.00
667.00,-112.00,-4513.00,-867.00,-2214.00,-86.00
671.00,-62.00,-4495.00,-704.00,-1810.00,-89.00
600.00,-37.00,-4534.00,-411.00,-1435.00,-57.00
527.00,6.00,-4511.00,-148.00,-1122.00,-42.00
543.00,75.00,-4482.00,20.00,-908.00,-31.00
506.00,79.00,-4425.00,-45.00,-862.00,-75.00
469.00,113.00,-4448.00,-107.00,-891.00,-96.00
386.00,130.00,-4434.00,-316.00,-876.00,-130.00
342.00,113.00,-4331.00,-569.00,-929.00,-107.00
395.00,89.00,-4286.00,-650.00,-1134.00,-82.00
430.00,48.00,-4255.00,-771.00,-1294.00,-62.00
464.00,-35.00,-4343.00,-675.00,-1341.00,-17.00
540.00,-51.00,-4449.00,-439.00,-1213.00,4.00
579.00,-106.00,-4501.00,-361.00,-990.00,-43.00
588.00,-103.00,-4548.00,-186.00,-668.00,-131.00
547.00,-41.00,-4596.00,58.00,-301.00,-181.00
501.00,-15.00,-4493.00,213.00,19.00,-168.00
404.00,83.00,-4409.00,337.00,173.00,-128.00
333.00,131.00,-4365.00,440.00,156.00,-93.00
304.00,80.00,-4242.00,352.00,-2.00,-114.00
343.00,117.00,-4243.00,130.00,-209.00,-130.00
331.00,106.00,-4264.00,31.00,-384.00,-96.00
331.00,72.00,-4269.00,21.00,-487.00,-79.00
310.00,32.00,-4351.00,103.00,-535.00,-108.00
320.00,42.00,-4384.00,180.00,-550.00,-176.00
409.00,46.00,-4337.00,178.00,-587.00,-203.00
419.00,57.00,-4371.00,256.00,-638.00,-168.00
462.00,81.00,-4427.00,222.00,-616.00,-117.00
385.00,60.00,-4529.00,443.00,-597.00,-119.00
350.00,68.00,-4530.00,391.00,-535.00,-135.00
362.00,70.00,-4542.00,459.00,-461.00,-153.00
260.00,110.00,-4479.00,384.00,-459.00,-206.00
300.00,101.00,-4464.00,197.00,-534.00,-253.00
333.00,53.00,-4508.00,239.00,-608.00,-323.00
328.00,50.00,-4512.00,174.00,-599.00,-364.00
325.00,20.00,-4517.00,212.00,-576.00,-398.00
286.00,44.00,-4531.00,492.00,-539.00,-416.00
291.00,146.00,-4543.00,455.00,-422.00,-378.00
553.00,204.00,-4514.00,344.00,-273.00,-180.00
244.00,97.00,-4485.00,395.00,-168.00,-11.00
163.00,31.00,-4411.00,185.00,-179.00,-73.00
276.00,39.00,-4366.00,144.00,-374.00,-153.00
337.00,41.00,-4427.00,52.00,-431.00,-111.00
303.00,52.00,-4451.00,20.00,-455.00,-105.00
285.00,9.00,-4550.00,142.00,-487.00,-173.00
263.00,48.00,-4579.00,197.00,-442.00,-214.00
280.00,-9.00,-4557.00,309.00,-359.00,-212.00
319.00,-44.00,-4536.00,774.00,-261.00,-251.00
265.00,-17.00,-4452.00,637.00,-173.00,-307.00
262.00,-45.00,-4411.00,881.00,-223.00,-351.00
279.00,16.00,-4393.00,937.00,-368.00,-392.00
278.00,12.00,-4390.00,907.00,-523.00,-397.00
295.00,-3.00,-4453.00,871.00,-583.00,-404.00
249.00,-30.00,-4514.00,683.00,-547.00,-474.00
233.00,4.00,-4511.00,664.00,-516.00,-493.00
263.00,50.00,-4521.00,687.00,-463.00,-462.00
256.00,109.00,-4426.00,589.00,-421.00,-324.00
258.00,69.00,-4430.00,576.00,-423.00,-173.00
156.00,-44.00,-4464.00,974.00,-502.00,-80.00
170.00,-45.00,-4453.00,1019.00,-574.00,-157.00
153.00,-41.00,-4443.00,800.00,-634.00,-273.00
140.00,-13.00,-4473.00,1096.00,-644.00,-265.00
130.00,10.00,-4498.00,1434.00,-651.00,-167.00
158.00,58.00,-4458.00,1672.00,-740.00,11.00
143.00,7.00,-4494.00,2165.00,-965.00,198.00
80.00,-182.00,-4457.00,2997.00,-1243.00,315.00
83.00,-207.00,-4454.00,4214.00,-1448.00,337.00
48.00,-258.00,-4306.00,4454.00,-1495.00,308.00
132.00,-394.00,-4312.00,4503.00,-1522.00,259.00
59.00,-507.00,-4374.00,5102.00,-1565.00,211.00
114.00,-490.00,-4541.00,5739.00,-1427.00,112.00
153.00,-524.00,-4580.00,5777.00,-1097.00,38.00
32.00,-468.00,-4661.00,6067.00,-724.00,9.00
154.00,-433.00,-4657.00,5721.00,-132.00,66.00
124.00,-519.00,-4566.00,5626.00,365.00,168.00
131.00,-648.00,-4404.00,5700.00,658.00,267.00
172.00,-753.00,-4247.00,5907.00,693.00,286.00
211.00,-782.00,-4210.00,5786.00,511.00,253.00
194.00,-984.00,-4250.00,5887.00,231.00,226.00
130.00,-1014.00,-4319.00,6819.00,158.00,201.00
49.00,-928.00,-4397.00,7286.00,257.00,166.00
83.00,-907.00,-4289.00,7455.00,452.00,256.00
-15.00,-1445.00,-3944.00,9468.00,-222.00,301.00
-40.00,-751.00,-4034.00,8313.00,-242.00,287.00
41.00,-1020.00,-4114.00,5892.00,-312.00,188.00
77.00,-1304.00,-4251.00,5905.00,-323.00,196.00
118.00,-1258.00,-4362.00,5965.00,-198.00,262.00
153.00,-1360.00,-4386.00,6089.00,121.00,274.00
134.00,-1550.00,-4367.00,6697.00,310.00,282.00
93.00,-1541.00,-4250.00,7286.00,382.00,260.00
54.00,-1542.00,-4091.00,7180.00,339.00,234.00
80.00,-1514.00,-3924.00,6330.00,267.00,227.00
85.00,-1737.00,-3924.00,6128.00,147.00,257.00
31.00,-1896.00,-3937.00,6938.00,53.00,171.00
61.00,-1965.00,-3962.00,7295.00,-7.00,1.00
86.00,-2072.00,-4009.00,7837.00,-32.00,-190.00
149.00,-2054.00,-3966.00,8002.00,-10.00,-405.00
159.00,-2085.00,-3978.00,7877.00,33.00,-515.00
108.00,-2245.00,-3936.00,8446.00,-94.00,-516.00
69.00,-2153.00,-3882.00,8499.00,-243.00,-537.00
61.00,-2234.00,-3868.00,8273.00,-362.00,-470.00
33.00,-2343.00,-3748.00,8767.00,-377.00,-384.00
84.00,-2343.00,-3648.00,9321.00,-250.00,-303.00
181.00,-2283.00,-3532.00,8882.00,-139.00,-182.00
117.00,-2385.00,-3371.00,8378.00,-185.00,0.00
24.00,-2421.00,-3270.00,8013.00,-295.00,83.00
51.00,-2446.00,-3227.00,7148.00,-427.00,100.00
142.00,-2444.00,-3202.00,5657.00,-661.00,150.00
66.00,-2646.00,-3279.00,4226.00,-975.00,195.00
77.00,-2935.00,-3378.00,4306.00,-1099.00,185.00
120.00,-2985.00,-3507.00,4723.00,-1035.00,59.00
128.00,-2881.00,-3451.00,4290.00,-834.00,-162.00
86.00,-2906.00,-3391.00,4101.00,-647.00,-285.00
24.00,-2784.00,-3333.00,3805.00,-485.00,-302.00
-11.00,-2752.00,-3232.00,3200.00,-395.00,-244.00
-11.00,-2803.00,-3183.00,3384.00,-302.00,-78.00
26.00,-2766.00,-3050.00,3252.00,-277.00,38.00
44.00,-2889.00,-3017.00,3165.00,-380.00,154.00
68.00,-3001.00,-3118.00,3056.00,-521.00,202.00
54.00,-3190.00,-3209.00,3382.00,-530.00,148.00
153.00,-3245.00,-3323.00,3154.00,-113.00,-209.00
-90.00,-3301.00,-3328.00,3213.00,240.00,-646.00
-55.00,-3275.00,-3179.00,3733.00,314.00,-902.00
86.00,-3201.00,-3112.00,4386.00,396.00,-970.00
63.00,-3241.00,-3049.00,5211.00,504.00,-956.00
25.00,-3219.00,-2928.00,6482.00,540.00,-931.00
58.00,-3053.00,-2810.00,6429.00,490.00,-953.00
105.00,-3054.00,-2704.00,5885.00,334.00,-823.00
51.00,-3192.00,-2755.00,5628.00,207.00,-613.00
167.00,-3284.00,-2702.00,5426.00,225.00,-569.00
253.00,-3282.00,-2660.00,4652.00,324.00,-646.00
224.00,-3271.00,-2638.00,3618.00,397.00,-701.00
125.00,-3198.00,-2587.00,2576.00,392.00,-691.00
44.00,-3206.00,-2563.00,1660.00,315.00,-546.00
73.00,-3207.00,-2511.00,1618.00,253.00,-288.00
134.00,-3160.00,-2460.00,1149.00,106.00,-27.00
119.00,-3359.00,-2488.00,959.00,-105.00,226.00
92.00,-3505.00,-2487.00,1520.00,-196.00,285.00
129.00,-3538.00,-2506.00,1664.00,-201.00,162.00
141.00,-3554.00,-2472.00,1966.00,-198.00,58.00
161.00,-3521.00,-2459.00,2123.00,-196.00,43.00
98.00,-3674.00,-2475.00,2431.00,-337.00,31.00
106.00,-3823.00,-2476.00,3070.00,-365.00,-132.00
81.00,-3825.00,-2534.00,3907.00,-327.00,-409.00
115.00,-3656.00,-2521.00,4233.00,-244.00,-654.00
98.00,-3524.00,-2471.00,3961.00,-242.00,-650.00
133.00,-3526.00,-2449.00,3951.00,-225.00,-453.00
141.00,-3461.00,-2404.00,3760.00,-147.00,-245.00
56.00,-3585.00,-2304.00,3578.00,-133.00,-63.00
114.00,-3805.00,-2244.00,4617.00,-91.00,3.00
148.00,-3776.00,-2128.00,5212.00,-96.00,-83.00
182.00,-3784.00,-2053.00,5490.00,-241.00,-165.00
109.00,-3788.00,-2128.00,5443.00,-349.00,-265.00
120.00,-3718.00,-2132.00,5628.00,-306.00,-251.00
95.00,-3632.00,-2140.00,5483.00,-205.00,-140.00
154.00,-3678.00,-2108.00,5082.00,-25.00,-22.00
134.00,-3743.00,-1996.00,5063.00,113.00,97.00
78.00,-3860.00,-1913.00,5076.00,126.00,116.00
88.00,-3887.00,-1795.00,4990.00,80.00,8.00
130.00,-3944.00,-1709.00,5164.00,15.00,-62.00
164.00,-3787.00,-1684.00,4878.00,-48.00,-174.00
129.00,-3775.00,-1659.00,4363.00,-85.00,-166.00
139.00,-3801.00,-1637.00,4366.00,-65.00,38.00
100.00,-3868.00,-1653.00,4538.00,-35.00,219.00
136.00,-3993.00,-1529.00,4814.00,4.00,295.00
164.00,-4095.00,-1408.00,5261.00,23.00,221.00
201.00,-4045.00,-1300.00,5433.00,-29.00,64.00
204.00,-3952.00,-1247.00,5286.00,-212.00,-23.00
212.00,-4042.00,-1211.00,4896.00,-415.00,-45.00
173.00,-4121.00,-1224.00,4850.00,-567.00,-102.00
131.00,-4087.00,-1319.00,4543.00,-621.00,-236.00
136.00,-4021.00,-1298.00,4078.00,-568.00,-337.00
182.00,-3894.00,-1271.00,3732.00,-445.00,-318.00
149.00,-3873.00,-1205.00,3207.00,-287.00,-184.00
161.00,-3927.00,-1194.00,2955.00,-113.00,-21.00
167.00,-3983.00,-1089.00,2685.00,-86.00,40.00
207.00,-3962.00,-1063.00,2240.00,-121.00,28.00
199.00,-4010.00,-1031.00,1800.00,-141.00,37.00
131.00,-3972.00,-1110.00,1355.00,-91.00,12.00
160.00,-3921.00,-1113.00,680.00,-22.00,81.00
114.00,-3987.00,-1139.00,215.00,78.00,194.00
108.00,-4062.00,-1142.00,16.00,164.00,225.00
135.00,-4100.00,-1076.00,-17.00,220.00,241.00
146.00,-4127.00,-973.00,12.00,242.00,185.00
113.00,-4148.00,-926.00,20.00,182.00,126.00
61.00,-4167.00,-866.00,255.00,36.00,23.00
96.00,-4100.00,-894.00,249.00,-116.00,-79.00
135.00,-4008.00,-925.00,323.00,-211.00,-97.00
117.00,-3967.00,-988.00,387.00,-243.00,-9.00
193.00,-3950.00,-1041.00,193.00,-199.00,52.00
210.00,-4010.00,-1057.00,-6.00,-101.00,134.00
189.00,-4099.00,-1070.00,-281.00,-72.00,129.00
154.00,-4206.00,-1070.00,-512.00,-20.00,14.00
131.00,-4143.00,-1093.00,-645.00,65.00,-113.00
107.00,-4019.00,-1031.00,-747.00,111.00,-142.00
131.00,-3930.00,-975.00,-887.00,106.00,-72.00
139.00,-3905.00,-967.00,-1003.00,100.00,65.00
112.00,-3987.00,-991.00,-841.00,98.00,178.00
129.00,-4021.00,-997.00,-1103.00,31.00,115.00
88.00,-4091.00,-1089.00,-1180.00,-26.00,98.00
63.00,-4066.00,-1149.00,-1273.00,-21.00,30.00
74.00,-3991.00,-1170.00,-1626.00,29.00,-28.00
102.00,-3996.00,-1164.00,-1892.00,82.00,14.00
163.00,-3964.00,-1198.00,-2288.00,179.00,27.00
194.00,-3975.00,-1212.00,-2662.00,270.00,29.00
104.00,-4022.00,-1189.00,-2892.00,368.00,-10.00
84.00,-4105.00,-1206.00,-2810.00,369.00,-5.00
51.00,-4111.00,-1203.00,-3013.00,278.00,-24.00
129.00,-4063.00,-1261.00,-3250.00,186.00,-31.00
138.00,-4117.00,-1287.00,-3020.00,193.00,-5.00
110.00,-4089.00,-1304.00,-2839.00,273.00,-65.00
137.00,-4081.00,-1312.00,-2632.00,282.00,-180.00
141.00,-4124.00,-1353.00,-2139.00,261.00,-263.00
75.00,-4010.00,-1344.00,-1703.00,207.00,-334.00
81.00,-3891.00,-1397.00,-1847.00,137.00,-322.00
31.00,-3866.00,-1417.00,-2012.00,27.00,-218.00
80.00,-3814.00,-1435.00,-2589.00,-48.00,-137.00
90.00,-3736.00,-1498.00,-3538.00,-124.00,-31.00
167.00,-3736.00,-1596.00,-4406.00,-97.00,166.00
171.00,-3872.00,-1624.00,-4865.00,-23.00,407.00
142.00,-4156.00,-1743.00,-4192.00,119.00,498.00
116.00,-4208.00,-1697.00,-3159.00,312.00,289.00
138.00,-4119.00,-1682.00,-3033.00,340.00,32.00
112.00,-3966.00,-1622.00,-3114.00,292.00,-132.00
147.00,-3796.00,-1572.00,-3558.00,222.00,-210.00
40.00,-3742.00,-1656.00,-3774.00,111.00,-80.00
109.00,-3808.00,-1686.00,-3352.00,31.00,60.00
90.00,-3926.00,-1759.00,-2572.00,-16.00,133.00
109.00,-3946.00,-1849.00,-1595.00,15.00,55.00
122.00,-3917.00,-1884.00,-1542.00,12.00,-149.00
94.00,-3866.00,-1918.00,-1600.00,-18.00,-284.00
122.00,-3738.00,-1899.00,-1740.00,-35.00,-350.00
135.00,-3599.00,-1899.00,-2341.00,-21.00,-360.00
126.00,-3633.00,-1982.00,-2828.00,-9.00,-242.00
155.00,-3652.00,-2009.00,-3127.00,61.00,-156.00
161.00,-3654.00,-1971.00,-3495.00,145.00,-86.00
153.00,-3737.00,-2043.00,-3768.00,127.00,-16.00
146.00,-3906.00,-2074.00,-3341.00,129.00,26.00
136.00,-3890.00,-2175.00,-2909.00,147.00,-123.00
118.00,-3818.00,-2170.00,-3136.00,175.00,-326.00
53.00,-3754.00,-2218.00,-3517.00,125.00,-429.00
127.00,-3687.00,-2243.00,-3542.00,166.00,-445.00
144.00,-3525.00,-2182.00,-3789.00,211.00,-434.00
122.00,-3468.00,-2198.00,-3999.00,148.00,-280.00
102.00,-3501.00,-2236.00,-3948.00,-10.00,-114.00
120.00,-3443.00,-2298.00,-4310.00,-151.00,-5.00
129.00,-3459.00,-2354.00,-4666.00,-265.00,105.00
166.00,-3340.00,-2474.00,-5094.00,-217.00,176.00
240.00,-3196.00,-2458.00,-6366.00,-147.00,284.00
250.00,-3145.00,-2458.00,-7452.00,-150.00,548.00
202.00,-3055.00,-2554.00,-8989.00,-299.00,811.00
78.00,-3155.00,-2709.00,-10415.00,-387.00,1098.00
1.00,-3571.00,-2926.00,-8858.00,-500.00,1292.00
83.00,-3550.00,-2939.00,-7590.00,-354.00,1044.00
100.00,-3541.00,-2975.00,-6823.00,-240.00,698.00
141.00,-3433.00,-2970.00,-5724.00,-196.00,440.00
164.00,-3257.00,-2989.00,-5239.00,-96.00,234.00
121.00,-3210.00,-3017.00,-4704.00,8.00,122.00
75.00,-3064.00,-3008.00,-4463.00,103.00,2.00
103.00,-2894.00,-2902.00,-4893.00,116.00,-56.00
108.00,-2862.00,-2845.00,-5283.00,-125.00,4.00
64.00,-2827.00,-2963.00,-5571.00,-477.00,116.00
46.00,-2828.00,-3094.00,-6015.00,-829.00,181.00
49.00,-2862.00,-3246.00,-6335.00,-1062.00,190.00
125.00,-2831.00,-3381.00,-6609.00,-1073.00,180.00
123.00,-2751.00,-3531.00,-6228.00,-896.00,240.00
102.00,-2637.00,-3603.00,-6165.00,-611.00,317.00
77.00,-2642.00,-3668.00,-6148.00,-362.00,365.00
-4.00,-2687.00,-3705.00,-5593.00,-60.00,407.00
62.00,-2648.00,-3658.00,-5001.00,259.00,330.00
48.00,-2601.00,-3578.00,-4491.00,495.00,238.00
15.00,-2529.00,-3477.00,-4715.00,499.00,90.00
0.00,-2461.00,-3432.00,-5256.00,286.00,-33.00
-75.00,-2465.00,-3480.00,-5113.00,-36.00,-84.00
-77.00,-2330.00,-3477.00,-5046.00,-283.00,-180.00
1.00,-2153.00,-3507.00,-5719.00,-511.00,-201.00
-2.00,-2008.00,-3644.00,-6440.00,-736.00,-71.00
14.00,-1818.00,-3711.00,-7824.00,-886.00,160.00
80.00,-1781.00,-3784.00,-9152.00,-1037.00,519.00
55.00,-1941.00,-3961.00,-9521.00,-1113.00,857.00
56.00,-1948.00,-4111.00,-9538.00,-961.00,970.00
-20.00,-2003.00,-4209.00,-9683.00,-622.00,892.00
-76.00,-1983.00,-4287.00,-9107.00,-298.00,724.00
-83.00,-1849.00,-4274.00,-8627.00,77.00,578.00
-118.00,-1828.00,-4253.00,-8019.00,290.00,433.00
-150.00,-1811.00,-4206.00,-7174.00,351.00,240.00
-102.00,-1708.00,-4172.00,-6700.00,227.00,22.00
-54.00,-1631.00,-4227.00,-6277.00,164.00,-131.00
-56.00,-1511.00,-4227.00,-5782.00,163.00,-209.00
-45.00,-1335.00,-4301.00,-5496.00,279.00,-227.00
-44.00,-1193.00,-4316.00,-5389.00,448.00,-76.00
-40.00,-1136.00,-4301.00,-5145.00,509.00,137.00
10.00,-1082.00,-4298.00,-5076.00,544.00,387.00
31.00,-1107.00,-4337.00,-5143.00,556.00,585.00
-76.00,-1187.00,-4341.00,-5138.00,509.00,607.00
-76.00,-1289.00,-4364.00,-4977.00,518.00,370.00
-41.00,-1269.00,-4381.00,-4259.00,566.00,63.00
-73.00,-1156.00,-4287.00,-3376.00,614.00,-168.00
-99.00,-1016.00,-4181.00,-2779.00,565.00,-305.00
-55.00,-878.00,-4156.00,-2623.00,406.00,-363.00
-76.00,-800.00,-4113.00,-2487.00,250.00,-294.00
23.00,-737.00,-4127.00,-2807.00,8.00,-209.00
71.00,-732.00,-4229.00,-3157.00,-255.00,-151.00
31.00,-757.00,-4389.00,-3534.00,-345.00,-136.00
88.00,-729.00,-4506.00,-3772.00,-259.00,-129.00
36.00,-639.00,-4502.00,-4324.00,-63.00,-160.00
63.00,-529.00,-4455.00,-5322.00,121.00,-148.00
62.00,-411.00,-4404.00,-6209.00,216.00,-21.00
63.00,-276.00,-4314.00,-7307.00,238.00,185.00
77.00,-189.00,-4263.00,-8482.00,117.00,452.00
-19.00,-172.00,-4330.00,-9756.00,-80.00,688.00
8.00,-292.00,-4479.00,-9577.00,-166.00,884.00
78.00,-201.00,-4581.00,-9167.00,-56.00,978.00
43.00,-230.00,-4626.00,-8845.00,116.00,968.00
84.00,-188.00,-4577.00,-8553.00,296.00,911.00
26.00,-129.00,-4548.00,-7790.00,456.00,829.00
-8.00,-100.00,-4474.00,-7171.00,565.00,678.00
4.00,-1.00,-4382.00,-6873.00,507.00,401.00
-6.00,120.00,-4336.00,-6896.00,395.00,182.00
54.00,225.00,-4340.00,-7029.00,285.00,36.00
34.00,320.00,-4338.00,-6721.00,127.00,-37.00
-81.00,465.00,-4330.00,-6828.00,-22.00,-107.00
-31.00,454.00,-4373.00,-6910.00,-159.00,-215.00
38.00,481.00,-4315.00,-6242.00,-211.00,-274.00
59.00,618.00,-4350.00,-5681.00,-201.00,-264.00
64.00,665.00,-4301.00,-5553.00,-227.00,-253.00
14.00,813.00,-4334.00,-5483.00,-323.00,-268.00
-38.00,947.00,-4300.00,-5930.00,-471.00,-252.00
-109.00,967.00,-4335.00,-6374.00,-635.00,-286.00
-148.00,966.00,-4344.00,-6311.00,-799.00,-346.00
-55.00,1013.00,-4410.00,-6263.00,-817.00,-431.00
-14.00,1035.00,-4472.00,-6195.00,-704.00,-481.00
6.00,1107.00,-4382.00,-6414.00,-390.00,-482.00
-47.00,1071.00,-4338.00,-6535.00,-187.00,-610.00
-118.00,1096.00,-4229.00,-6368.00,-208.00,-914.00
-48.00,1241.00,-4182.00,-6767.00,-324.00,-1247.00
-25.00,1367.00,-4218.00,-6802.00,-499.00,-1382.00
-112.00,1504.00,-4203.00,-6378.00,-561.00,-1285.00
-89.00,1661.00,-4245.00,-5844.00,-511.00,-1013.00
-48.00,1721.00,-4248.00,-5261.00,-403.00,-678.00
-47.00,1839.00,-4241.00,-5359.00,-245.00,-404.00
-22.00,1801.00,-4211.00,-5411.00,-91.00,-185.00
-75.00,1746.00,-4225.00,-5343.00,66.00,-136.00
-134.00,1789.00,-4235.00,-5420.00,284.00,-181.00
-84.00,1871.00,-4134.00,-5929.00,520.00,-207.00
-64.00,1910.00,-4014.00,-5871.00,638.00,-84.00
-95.00,2020.00,-3888.00,-5922.00,678.00,98.00
-128.00,2108.00,-3772.00,-6480.00,577.00,260.00
-116.00,2109.00,-3767.00,-6443.00,311.00,373.00
-67.00,2176.00,-3806.00,-6992.00,123.00,406.00
15.00,2201.00,-3817.00,-7325.00,-10.00,384.00
80.00,2315.00,-3807.00,-7645.00,-6.00,471.00
33.00,2301.00,-3789.00,-7458.00,78.00,701.00
-91.00,2331.00,-3742.00,-6455.00,179.00,971.00
-84.00,2367.00,-3670.00,-5508.00,291.00,1148.00
-49.00,2401.00,-3576.00,-4982.00,338.00,1256.00
-13.00,2420.00,-3532.00,-4959.00,232.00,1193.00
-81.00,2473.00,-3559.00,-5507.00,61.00,867.00
-53.00,2503.00,-3549.00,-6294.00,9.00,503.00
-36.00,2529.00,-3523.00,-6920.00,-2.00,240.00
34.00,2607.00,-3457.00,-7389.00,-25.00,71.00
83.00,2700.00,-3395.00,-7788.00,-63.00,9.00
73.00,2685.00,-3402.00,-7277.00,-28.00,100.00
35.00,2734.00,-3357.00,-6449.00,86.00,307.00
13.00,2785.00,-3257.00,-5768.00,190.00,433.00
122.00,2787.00,-3208.00,-5422.00,252.00,550.00
40.00,2768.00,-3121.00,-5128.00,268.00,603.00
-7.00,2807.00,-3069.00,-5109.00,243.00,545.00
60.00,2801.00,-3040.00,-5231.00,160.00,291.00
57.00,2866.00,-3053.00,-5523.00,29.00,-46.00
116.00,2979.00,-3067.00,-5917.00,-37.00,-376.00
98.00,3178.00,-3079.00,-6624.00,-42.00,-591.00
-6.00,3180.00,-3033.00,-7319.00,26.00,-687.00
12.00,3215.00,-2921.00,-7139.00,120.00,-689.00
49.00,3409.00,-2832.00,-7589.00,122.00,-556.00
104.00,3393.00,-2777.00,-8436.00,38.00,-376.00
54.00,3284.00,-2702.00,-8111.00,-40.00,-211.00
14.00,3264.00,-2637.00,-7252.00,-28.00,-87.00
43.00,3243.00,-2573.00,-6378.00,30.00,-33.00
22.00,3320.00,-2492.00,-5798.00,36.00,-85.00
-17.00,3445.00,-2450.00,-5725.00,-15.00,-271.00
-31.00,3473.00,-2431.00,-5933.00,-95.00,-592.00
71.00,3595.00,-2435.00,-6413.00,-102.00,-767.00
45.00,3704.00,-2478.00,-6812.00,-90.00,-929.00
-33.00,3806.00,-2448.00,-7060.00,36.00,-942.00
-120.00,3943.00,-2323.00,-7580.00,197.00,-666.00
17.00,3965.00,-2149.00,-8306.00,253.00,-294.00
-25.00,3814.00,-2057.00,-8546.00,247.00,46.00
9.00,3670.00,-2009.00,-7872.00,228.00,294.00
-13.00,3679.00,-1927.00,-7274.00,234.00,428.00
24.00,3694.00,-1826.00,-7025.00,235.00,483.00
-21.00,3691.00,-1680.00,-6705.00,183.00,496.00
-20.00,3739.00,-1649.00,-6486.00,91.00,378.00
-63.00,3721.00,-1602.00,-6181.00,9.00,171.00
1.00,3763.00,-1554.00,-5310.00,-57.00,-9.00
-44.00,3926.00,-1526.00,-4843.00,-89.00,-73.00
-51.00,4055.00,-1527.00,-5131.00,-97.00,33.00
-38.00,3939.00,-1499.00,-5500.00,-87.00,196.00
-16.00,3841.00,-1440.00,-5352.00,-11.00,231.00
63.00,3811.00,-1413.00,-5488.00,5.00,140.00
132.00,3838.00,-1334.00,-5835.00,-9.00,-27.00
58.00,3790.00,-1295.00,-5606.00,0.00,-170.00
68.00,3872.00,-1275.00,-4753.00,125.00,-254.00
34.00,4024.00,-1215.00,-4281.00,195.00,-200.00
25.00,4090.00,-1120.00,-4333.00,197.00,-31.00
-26.00,4088.00,-1035.00,-4440.00,181.00,161.00
26.00,4004.00,-1004.00,-4382.00,97.00,320.00
87.00,3970.00,-968.00,-4020.00,45.00,207.00
47.00,4004.00,-997.00,-4066.00,81.00,-29.00
4.00,4064.00,-989.00,-4268.00,182.00,-99.00
57.00,4001.00,-954.00,-3984.00,303.00,-74.00
23.00,4053.00,-854.00,-3885.00,343.00,-35.00
-22.00,4117.00,-758.00,-4510.00,261.00,12.00
49.00,4049.00,-721.00,-5274.00,160.00,21.00
-20.00,3965.00,-675.00,-5073.00,137.00,11.00
78.00,3929.00,-664.00,-4548.00,173.00,-47.00
74.00,3891.00,-610.00,-3760.00,182.00,-104.00
64.00,4006.00,-559.00,-3231.00,159.00,-128.00
73.00,4028.00,-533.00,-2929.00,111.00,-58.00
3.00,4090.00,-518.00,-2787.00,65.00,-37.00
32.00,4229.00,-464.00,-3500.00,29.00,-82.00
78.00,4147.00,-524.00,-4206.00,63.00,-167.00
51.00,4125.00,-508.00,-4115.00,192.00,-141.00
124.00,4188.00,-448.00,-4105.00,268.00,-69.00
73.00,4171.00,-379.00,-3751.00,355.00,21.00
-34.00,4192.00,-316.00,-3415.00,415.00,160.00
57.00,4188.00,-279.00,-3717.00,430.00,208.00
-21.00,4165.00,-195.00,-4127.00,408.00,226.00
-64.00,4114.00,-207.00,-4780.00,390.00,279.00
-40.00,3955.00,-157.00,-4914.00,438.00,355.00
3.00,3823.00,-67.00,-4205.00,476.00,263.00
11.00,3865.00,30.00,-3549.00,503.00,17.00
30.00,3901.00,43.00,-3051.00,501.00,-179.00
10.00,3966.00,132.00,-2375.00,413.00,-185.00
11.00,4055.00,137.00,-2052.00,230.00,-171.00
1.00,4136.00,139.00,-2218.00,72.00,-200.00
16.00,4190.00,54.00,-2283.00,63.00,-229.00
-2.00,4248.00,86.00,-2423.00,69.00,-118.00
52.00,4191.00,85.00,-2580.00,52.00,79.00
145.00,4136.00,93.00,-2497.00,60.00,167.00
69.00,4145.00,163.00,-2188.00,95.00,238.00
34.00,4166.00,209.00,-2180.00,21.00,384.00
46.00,4104.00,299.00,-2197.00,-125.00,532.00
50.00,4077.00,272.00,-2065.00,-288.00,697.00
20.00,4056.00,269.00,-2311.00,-425.00,771.00
111.00,3967.00,243.00,-2625.00,-448.00,684.00
89.00,3936.00,195.00,-2529.00,-330.00,569.00
85.00,3945.00,160.00,-2457.00,-111.00,398.00
94.00,3941.00,213.00,-2239.00,131.00,193.00
89.00,3950.00,271.00,-1850.00,302.00,86.00
74.00,4003.00,406.00,-1426.00,339.00,103.00
68.00,4006.00,437.00,-1365.00,241.00,149.00
34.00,3931.00,456.00,-1018.00,120.00,181.00
75.00,3937.00,423.00,-692.00,98.00,136.00
121.00,3891.00,390.00,-485.00,98.00,74.00
60.00,3903.00,384.00,-258.00,162.00,65.00
87.00,3900.00,304.00,-188.00,216.00,121.00
148.00,3881.00,387.00,-25.00,258.00,78.00
138.00,3855.00,430.00,271.00,245.00,55.00
86.00,3842.00,429.00,530.00,153.00,39.00
58.00,3871.00,450.00,965.00,129.00,-29.00
95.00,3977.00,418.00,892.00,122.00,-96.00
102.00,3905.00,418.00,812.00,98.00,-115.00
104.00,3889.00,326.00,994.00,97.00,-151.00
99.00,3894.00,354.00,1079.00,141.00,-258.00
115.00,3920.00,331.00,1387.00,270.00,-378.00
82.00,4003.00,348.00,1658.00,317.00,-441.00
95.00,4026.00,383.00,1853.00,309.00,-439.00
13.00,4073.00,381.00,2113.00,293.00,-392.00
70.00,4109.00,306.00,1919.00,215.00,-353.00
114.00,4043.00,228.00,1891.00,171.00,-303.00
103.00,3956.00,202.00,2359.00,252.00,-272.00
131.00,3944.00,207.00,3012.00,325.00,-241.00
66.00,3996.00,173.00,3419.00,383.00,-226.00
117.00,3945.00,170.00,3890.00,404.00,-163.00
52.00,3923.00,172.00,4766.00,382.00,-116.00
17.00,3987.00,120.00,5137.00,366.00,-179.00
13.00,4062.00,85.00,5470.00,351.00,-185.00
52.00,4108.00,39.00,5284.00,290.00,-144.00
92.00,4058.00,-32.00,5141.00,214.00,-113.00
104.00,4048.00,-77.00,5606.00,199.00,-91.00
84.00,4009.00,-192.00,6230.00,245.00,-19.00
112.00,3938.00,-219.00,7208.00,253.00,126.00
90.00,3845.00,-283.00,8679.00,244.00,151.00
122.00,3849.00,-345.00,9753.00,220.00,79.00
43.00,3864.00,-405.00,10613.00,161.00,-106.00
-11.00,3964.00,-496.00,11104.00,30.00,-299.00
19.00,3940.00,-633.00,11362.00,-164.00,-407.00
119.00,3878.00,-858.00,12335.00,-237.00,-458.00
114.00,3906.00,-1100.00,13609.00,-126.00,-461.00
-6.00,4144.00,-1336.00,13868.00,108.00,-473.00
-98.00,4285.00,-1505.00,12123.00,399.00,-499.00
3.00,4051.00,-1613.00,11652.00,783.00,-481.00
102.00,3964.00,-1713.00,12507.00,1096.00,-364.00
-4.00,3859.00,-1806.00,13754.00,1374.00,-188.00
-47.00,3700.00,-1869.00,15106.00,1603.00,-100.00
-19.00,3849.00,-1877.00,14935.00,1669.00,-24.00
9.00,3862.00,-1858.00,12620.00,1474.00,-53.00
18.00,3734.00,-1929.00,10375.00,1151.00,-276.00
-11.00,3581.00,-2010.00,9217.00,803.00,-572.00
44.00,3613.00,-2191.00,9178.00,575.00,-755.00
-2.00,3666.00,-2294.00,8805.00,400.00,-926.00
-62.00,3680.00,-2489.00,8741.00,330.00,-997.00
-8.00,3773.00,-2670.00,8485.00,478.00,-795.00
74.00,3712.00,-2689.00,7308.00,696.00,-583.00
128.00,3486.00,-2747.00,6871.00,890.00,-403.00
131.00,3243.00,-2783.00,7740.00,1034.00,-258.00
85.00,3253.00,-2823.00,9297.00,1171.00,-142.00
33.00,3081.00,-2886.00,10755.00,1202.00,-111.00
-26.00,3133.00,-2959.00,12236.00,1199.00,-128.00
-30.00,3182.00,-3077.00,12644.00,1157.00,-216.00
-17.00,3139.00,-3136.00,12124.00,1076.00,-283.00
22.00,3170.00,-3150.00,10617.00,1025.00,-280.00
87.00,3080.00,-3163.00,8848.00,930.00,-309.00
45.00,2888.00,-3304.00,7807.00,791.00,-401.00
69.00,2832.00,-3421.00,7674.00,674.00,-461.00
97.00,2728.00,-3620.00,8443.00,656.00,-466.00
118.00,2738.00,-3717.00,9138.00,942.00,-341.00
152.00,2727.00,-3795.00,8900.00,1336.00,-239.00
79.00,2549.00,-3744.00,9206.00,1576.00,-153.00
-4.00,2589.00,-3691.00,9373.00,1708.00,-50.00
46.00,2580.00,-3570.00,8569.00,1584.00,-16.00
50.00,2372.00,-3607.00,8401.00,1334.00,59.00
26.00,2235.00,-3637.00,9266.00,1119.00,209.00
76.00,2184.00,-3761.00,9914.00,979.00,333.00
91.00,2111.00,-3840.00,9922.00,981.00,365.00
102.00,2054.00,-3796.00,8457.00,1011.00,256.00
141.00,1867.00,-3814.00,7057.00,905.00,-13.00
195.00,1733.00,-3879.00,6546.00,719.00,-230.00
166.00,1712.00,-4007.00,6379.00,589.00,-406.00
129.00,1689.00,-4081.00,6595.00,569.00,-493.00
97.00,1732.00,-4078.00,6628.00,631.00,-477.00
99.00,1614.00,-4144.00,7418.00,642.00,-456.00
140.00,1655.00,-4182.00,7800.00,812.00,-341.00
159.00,1681.00,-4192.00,7249.00,918.00,-196.00
179.00,1536.00,-4107.00,6510.00,965.00,-80.00
231.00,1417.00,-4086.00,6065.00,963.00,-5.00
194.00,1338.00,-3994.00,5444.00,709.00,-15.00
159.00,1274.00,-3953.00,4860.00,401.00,-58.00
192.00,1260.00,-3940.00,4229.00,102.00,-123.00
168.00,1274.00,-3890.00,3194.00,-259.00,-174.00
157.00,1236.00,-3949.00,2314.00,-721.00,-188.00
163.00,1262.00,-4015.00,1855.00,-1150.00,-114.00
156.00,1235.00,-4181.00,1284.00,-1448.00,15.00
173.00,1185.00,-4336.00,1222.00,-1579.00,132.00
105.00,1023.00,-4497.00,2222.00,-1443.00,272.00
199.00,1085.00,-4539.00,2549.00,-1026.00,361.00
173.00,997.00,-4449.00,2502.00,-735.00,345.00
160.00,1007.00,-4355.00,2858.00,-582.00,349.00
145.00,1005.00,-4333.00,3104.00,-609.00,392.00
132.00,1041.00,-4380.00,3227.00,-694.00,441.00
66.00,1026.00,-4447.00,3056.00,-570.00,550.00
80.00,845.00,-4458.00,3607.00,-342.00,668.00
125.00,788.00,-4417.00,4598.00,-96.00,762.00
196.00,765.00,-4349.00,4901.00,66.00,814.00
240.00,693.00,-4273.00,4701.00,68.00,796.00
166.00,602.00,-4276.00,4535.00,-99.00,681.00
132.00,631.00,-4369.00,4491.00,-300.00,535.00
112.00,660.00,-4504.00,4249.00,-317.00,459.00
154.00,670.00,-4565.00,4095.00,-195.00,481.00
122.00,600.00,-4581.00,4525.00,58.00,590.00
160.00,626.00,-4577.00,4236.00,387.00,692.00
109.00,556.00,-4464.00,3513.00,523.00,676.00
161.00,465.00,-4399.00,3016.00,518.00,601.00
155.00,495.00,-4408.00,2643.00,443.00,564.00
218.00,491.00,-4411.00,2120.00,387.00,537.00
182.00,419.00,-4408.00,1623.00,335.00,565.00
114.00,404.00,-4389.00,1659.00,367.00,619.00
102.00,461.00,-4367.00,1576.00,441.00,706.00
127.00,445.00,-4217.00,1317.00,382.00,856.00
75.00,398.00,-4198.00,1212.00,165.00,965.00
112.00,371.00,-4293.00,753.00,-44.00,950.00
169.00,304.00,-4394.00,355.00,-156.00,880.00
168.00,276.00,-4405.00,-9.00,-158.00,818.00
198.00,200.00,-4434.00,-52.00,-142.00,749.00
245.00,235.00,-4458.00,-36.00,-119.00,670.00
180.00,201.00,-4506.00,182.00,-10.00,589.00
133.00,246.00,-4486.00,325.00,200.00,527.00
141.00,260.00,-4418.00,484.00,308.00,491.00
201.00,245.00,-4301.00,451.00,251.00,450.00
186.00,134.00,-4235.00,530.00,-17.00,372.00
200.00,169.00,-4229.00,560.00,-276.00,199.00
99.00,114.00,-4330.00,416.00,-394.00,1.00
163.00,114.00,-4369.00,594.00,-447.00,-211.00
194.00,180.00,-4446.00,489.00,-432.00,-392.00
180.00,247.00,-4456.00,425.00,-435.00,-478.00
197.00,341.00,-4516.00,391.00,-412.00,-452.00
135.00,393.00,-4456.00,221.00,-363.00,-374.00
111.00,380.00,-4458.00,148.00,-284.00,-279.00
86.00,368.00,-4429.00,236.00,-241.00,-183.00
79.00,337.00,-4391.00,137.00,-258.00,-113.00
116.00,273.00,-4386.00,218.00,-324.00,-73.00
124.00,265.00,-4417.00,289.00,-407.00,-75.00
73.00,237.00,-4471.00,367.00,-408.00,-148.00
69.00,220.00,-4523.00,422.00,-340.00,-237.00
49.00,267.00,-4608.00,648.00,-236.00,-282.00
99.00,340.00,-4522.00,577.00,-116.00,-244.00
143.00,358.00,-4453.00,544.00,-62.00,-147.00
95.00,377.00,-4467.00,309.00,-16.00,-74.00
61.00,331.00,-4393.00,59.00,-32.00,-5.00
86.00,262.00,-4333.00,119.00,-115.00,40.00
62.00,271.00,-4337.00,-3.00,-183.00,66.00
41.00,233.00,-4323.00,-52.00,-258.00,51.00
83.00,197.00,-4369.00,123.00,-348.00,19.00
63.00,264.00,-4434.00,133.00,-389.00,17.00
106.00,312.00,-4468.00,52.00,-435.00,53.00
115.00,329.00,-4530.00,0.00,-445.00,129.00
90.00,366.00,-4547.00,-129.00,-332.00,258.00
132.00,364.00,-4620.00,-246.00,-158.00,449.00
72.00,297.00,-4591.00,-60.00,11.00,638.00
61.00,288.00,-4550.00,55.00,155.00,713.00
25.00,281.00,-4491.00,32.00,275.00,746.00
16.00,353.00,-4414.00,95.00,275.00,826.00
112.00,386.00,-4383.00,80.00,139.00,1006.00
138.00,395.00,-4488.00,69.00,30.00,1233.00
107.00,381.00,-4541.00,17.00,75.00,1363.00
66.00,423.00,-4578.00,-217.00,230.00,1499.00
80.00,545.00,-4464.00,-221.00,403.00,1836.00
75.00,556.00,-4371.00,-21.00,474.00,2314.00
156.00,568.00,-4282.00,224.00,442.00,2847.00
143.00,389.00,-4204.00,688.00,321.00,3380.00
211.00,108.00,-4094.00,1639.00,-229.00,3587.00
-130.00,322.00,-4212.00,1894.00,-449.00,3560.00
6.00,342.00,-4353.00,1331.00,-454.00,3668.00
-172.00,109.00,-4390.00,1244.00,-377.00,3630.00
-205.00,54.00,-4304.00,885.00,-349.00,3161.00
-79.00,-10.00,-4228.00,428.00,-522.00,2667.00
19.00,20.00,-4212.00,113.00,-829.00,2279.00
12.00,46.00,-4234.00,-95.00,-1072.00,2024.00
-45.00,148.00,-4232.00,-462.00,-1202.00,1882.00
27.00,219.00,-4307.00,-755.00,-1388.00,1875.00
101.00,261.00,-4353.00,-888.00,-1582.00,1963.00
-17.00,304.00,-4459.00,-1004.00,-1624.00,2074.00
36.00,328.00,-4425.00,-782.00,-1487.00,2307.00
225.00,294.00,-4465.00,-162.00,-1391.00,2658.00
171.00,282.00,-4538.00,420.00,-1365.00,2978.00
-42.00,270.00,-4549.00,784.00,-1320.00,3181.00
-115.00,170.00,-4516.00,1372.00,-1192.00,3284.00
45.00,-23.00,-4291.00,4403.00,-1404.00,3567.00
-159.00,514.00,-4296.00,4519.00,-1355.00,3825.00
-171.00,146.00,-4284.00,4117.00,-1155.00,4064.00
-191.00,157.00,-4301.00,5194.00,-1418.00,4283.00
-147.00,144.00,-4329.00,4866.00,-1774.00,4389.00
-154.00,12.00,-4452.00,4344.00,-1992.00,4481.00
-150.00,-72.00,-4488.00,3574.00,-2004.00,4487.00
-55.00,-202.00,-4594.00,2825.00,-1774.00,4475.00
-153.00,-287.00,-4587.00,2236.00,-1491.00,4156.00
-76.00,-409.00,-4620.00,930.00,-1201.00,3445.00
-112.00,-452.00,-4625.00,607.00,-965.00,2879.00
-161.00,-295.00,-4659.00,1010.00,-762.00,2577.00
-343.00,-179.00,-4712.00,1480.00,-419.00,2488.00
-9.00,-155.00,-4759.00,2384.00,143.00,2919.00
226.00,-158.00,-4939.00,3260.00,340.00,3420.00
24.00,-121.00,-5066.00,4566.00,574.00,3989.00
-89.00,72.00,-5086.00,5930.00,1113.00,4708.00
-43.00,348.00,-4969.00,6356.00,1931.00,5542.00
-270.00,354.00,-4845.00,6148.00,2723.00,6338.00
-411.00,282.00,-4549.00,5174.00,3447.00,6848.00
-394.00,-96.00,-4314.00,4338.00,3729.00,7065.00
-310.00,-333.00,-4044.00,3227.00,3609.00,6855.00
-271.00,-623.00,-3804.00,1015.00,3040.00,6265.00
-288.00,-1069.00,-3728.00,-1029.00,1970.00,5169.00
-133.00,-1292.00,-3927.00,-1426.00,879.00,3932.00
-42.00,-1077.00,-4200.00,-1688.00,214.00,2910.00
97.00,-873.00,-4521.00,-2158.00,-196.00,2180.00
136.00,-551.00,-4787.00,-1684.00,134.00,2043.00
138.00,46.00,-4798.00,-715.00,1014.00,2710.00
155.00,419.00,-4734.00,-337.00,1748.00,4002.00
51.00,507.00,-4657.00,1001.00,2415.00,5841.00
15.00,507.00,-4608.00,2695.00,2887.00,7627.00
-28.00,376.00,-4477.00,3567.00,3471.00,9179.00
-258.00,251.00,-4352.00,4020.00,4045.00,10283.00
17.00,140.00,-4186.00,3738.00,4283.00,11291.00
-373.00,-354.00,-3911.00,2498.00,3601.00,11295.00
-452.00,-1062.00,-3700.00,1406.00,2706.00,10320.00
-142.00,-1487.00,-3707.00,1426.00,1689.00,8929.00
-133.00,-1558.00,-3786.00,570.00,621.00,7379.00
20.00,-1593.00,-3992.00,-461.00,46.00,5691.00
165.00,-1666.00,-4143.00,-1107.00,-319.00,4065.00
143.00,-1434.00,-4257.00,-811.00,-250.00,2730.00
221.00,-767.00,-4417.00,-297.00,-66.00,2232.00
189.00,-159.00,-4461.00,-1004.00,69.00,2566.00
-24.00,67.00,-4531.00,-1199.00,414.00,3464.00
-113.00,110.00,-4602.00,-715.00,665.00,4417.00
-149.00,-44.00,-4640.00,-248.00,587.00,5234.00
-125.00,-367.00,-4667.00,-62.00,713.00,5373.00
-78.00,-474.00,-4549.00,97.00,925.00,4844.00
-76.00,-640.00,-4412.00,-680.00,1129.00,4350.00
25.00,-682.00,-4279.00,-623.00,827.00,4168.00
-10.00,-720.00,-4185.00,-1134.00,313.00,3788.00
-73.00,-919.00,-4300.00,-1867.00,-204.00,3079.00
57.00,-932.00,-4430.00,-1947.00,-540.00,2364.00
52.00,-778.00,-4512.00,-1805.00,-434.00,1995.00
84.00,-469.00,-4493.00,-1656.00,-249.00,2147.00
130.00,-317.00,-4416.00,-1650.00,-95.00,2661.00
5.00,-171.00,-4330.00,-1885.00,-316.00,2895.00
-26.00,-155.00,-4330.00,-2341.00,-608.00,3174.00
-21.00,-149.00,-4494.00,-2576.00,-938.00,3535.00
90.00,-225.00,-4671.00,-2498.00,-1144.00,4062.00
84.00,-368.00,-4745.00,-2341.00,-1160.00,4322.00
-124.00,-375.00,-4648.00,-2192.00,-725.00,3920.00
-13.00,-265.00,-4383.00,-2116.00,-697.00,3777.00
-163.00,-250.00,-4261.00,-1886.00,-1060.00,4012.00
-204.00,-378.00,-4116.00,-1358.00,-1353.00,4102.00
-183.00,-402.00,-4152.00,-790.00,-1953.00,3896.00
-183.00,-390.00,-4454.00,-1024.00,-2242.00,3213.00
431.00,-212.00,-5306.00,-445.00,-1316.00,3365.00
-77.00,-119.00,-5410.00,100.00,51.00,3151.00
85.00,146.00,-5146.00,248.00,927.00,3462.00
-87.00,86.00,-4778.00,872.00,1227.00,4204.00
-189.00,124.00,-4361.00,1263.00,1332.00,4096.00
-7.00,364.00,-3942.00,838.00,1029.00,4256.00
-256.00,505.00,-3783.00,-102.00,297.00,4726.00
-169.00,295.00,-3805.00,-1326.00,-568.00,5153.00
-248.00,-177.00,-4052.00,-1750.00,-1246.00,5347.00
-78.00,-620.00,-4532.00,-1516.00,-1525.00,4947.00
14.00,-780.00,-4846.00,-1013.00,-1223.00,4305.00
57.00,-696.00,-4809.00,-654.00,-806.00,3392.00
-95.00,-363.00,-4704.00,-766.00,-404.00,2674.00
-103.00,12.00,-4413.00,-735.00,-140.00,2356.00
-192.00,318.00,-4159.00,-1324.00,-289.00,2706.00
-160.00,69.00,-4043.00,-1808.00,-908.00,3236.00
-250.00,-187.00,-4334.00,-1948.00,-1477.00,3197.00
-99.00,-324.00,-4681.00,-2163.00,-1553.00,2920.00
-190.00,-292.00,-4900.00,-1475.00,-1341.00,2786.00
30.00,-8.00,-4958.00,-1703.00,-685.00,2293.00
8.00,152.00,-4743.00,-1703.00,78.00,2208.00
-4.00,61.00,-4436.00,-2117.00,432.00,2241.00
-120.00,-362.00,-4325.00,-2378.00,428.00,1843.00
-128.00,-462.00,-4275.00,-1990.00,316.00,1050.00
-53.00,-366.00,-4360.00,-1805.00,106.00,289.00
-156.00,-218.00,-4619.00,-1190.00,46.00,-238.00
-178.00,-16.00,-4732.00,-420.00,290.00,-360.00
-95.00,161.00,-4695.00,-86.00,733.00,-431.00
-203.00,111.00,-4522.00,-36.00,913.00,-496.00
-182.00,68.00,-4375.00,126.00,884.00,-615.00
-194.00,68.00,-4324.00,16.00,770.00,-809.00
-144.00,142.00,-4361.00,-209.00,623.00,-1042.00
-113.00,129.00,-4608.00,-683.00,564.00,-1235.00
-11.00,-17.00,-4780.00,-781.00,929.00,-1479.00
-42.00,-226.00,-4698.00,-402.00,1247.00,-1832.00
-29.00,-376.00,-4571.00,-195.00,1384.00,-2570.00
-39.00,-437.00,-4520.00,-101.00,1490.00,-3488.00
-82.00,-188.00,-4461.00,-31.00,1708.00,-4393.00
-148.00,-59.00,-4322.00,74.00,1741.00,-4986.00
-87.00,-67.00,-4345.00,-312.00,1576.00,-5535.00
-86.00,-248.00,-4425.00,-371.00,1531.00,-6290.00
-75.00,-330.00,-4490.00,157.00,1878.00,-7269.00
-87.00,-280.00,-4096.00,558.00,1780.00,-8043.00
-237.00,-378.00,-3975.00,1777.00,1154.00,-8810.00
-372.00,-322.00,-3968.00,2344.00,364.00,-9772.00
-311.00,-270.00,-4100.00,2710.00,-444.00,-10751.00
-370.00,28.00,-4163.00,2021.00,-1020.00,-11426.00
-346.00,276.00,-4193.00,1387.00,-1638.00,-11591.00
-288.00,696.00,-4358.00,201.00,-2230.00,-11365.00
-326.00,1165.00,-4692.00,-728.00,-2031.00,-10438.00
29.00,1532.00,-4806.00,-1223.00,-1232.00,-8579.00
78.00,1431.00,-4667.00,-3075.00,-38.00,-7110.00
-91.00,866.00,-4228.00,-3054.00,197.00,-5623.00
-198.00,321.00,-3970.00,-2875.00,-393.00,-5141.00
-121.00,42.00,-4137.00,-3293.00,-920.00,-5224.00
-69.00,-37.00,-4371.00,-3533.00,-770.00,-5747.00
31.00,-109.00,-4438.00,-4285.00,-284.00,-6300.00
11.00,-190.00,-4440.00,-4166.00,-71.00,-6847.00
-86.00,24.00,-4526.00,-3641.00,589.00,-7117.00
37.00,60.00,-4453.00,-3388.00,1156.00,-7109.00
-75.00,8.00,-4357.00,-3142.00,1391.00,-7080.00
-373.00,-232.00,-4370.00,-2758.00,1406.00,-7414.00
-652.00,-459.00,-4370.00,-1621.00,1290.00,-8118.00
-641.00,-408.00,-4467.00,-39.00,954.00,-9126.00
-497.00,-74.00,-4538.00,653.00,892.00,-9905.00
-424.00,238.00,-4505.00,1305.00,1039.00,-10070.00
-452.00,631.00,-4467.00,1764.00,1128.00,-9927.00
-288.00,884.00,-4370.00,831.00,1031.00,-9693.00
-316.00,923.00,-4391.00,217.00,815.00,-9002.00
-181.00,993.00,-4444.00,30.00,662.00,-8238.00
-319.00,1003.00,-4402.00,-147.00,688.00,-7318.00
-129.00,977.00,-4279.00,213.00,694.00,-6316.00
-88.00,843.00,-4177.00,-121.00,468.00,-5530.00
-146.00,568.00,-4160.00,-362.00,110.00,-5135.00
-127.00,551.00,-4193.00,-1397.00,-152.00,-5042.00
-185.00,315.00,-4228.00,-2144.00,-427.00,-5154.00
-269.00,332.00,-4204.00,-1811.00,-415.00,-5336.00
-183.00,572.00,-4207.00,-1335.00,-505.00,-5152.00
-151.00,584.00,-4259.00,-1121.00,-696.00,-4756.00
-180.00,375.00,-4380.00,-1081.00,-734.00,-4562.00
-82.00,163.00,-4549.00,-793.00,-690.00,-4715.00
-136.00,71.00,-4651.00,-586.00,-552.00,-5087.00
-193.00,71.00,-4626.00,-485.00,-166.00,-5515.00
-221.00,199.00,-4483.00,-588.00,102.00,-5941.00
-255.00,277.00,-4410.00,-390.00,125.00,-6210.00
-149.00,591.00,-4497.00,-66.00,199.00,-6114.00
-91.00,864.00,-4442.00,-224.00,368.00,-5540.00
-52.00,905.00,-4292.00,-590.00,359.00,-4739.00
-233.00,711.00,-4330.00,-512.00,321.00,-4050.00
-207.00,317.00,-4311.00,-555.00,142.00,-3906.00
-145.00,214.00,-4398.00,-44.00,-28.00,-3999.00
13.00,313.00,-4493.00,95.00,-107.00,-4077.00
67.00,364.00,-4647.00,402.00,-153.00,-3995.00
-187.00,469.00,-4635.00,561.00,148.00,-3905.00
-284.00,475.00,-4468.00,1035.00,575.00,-3730.00
-279.00,481.00,-4219.00,1051.00,556.00,-3617.00
-389.00,333.00,-4061.00,1071.00,223.00,-3585.00
-278.00,175.00,-4029.00,587.00,-506.00,-3890.00
-36.00,29.00,-4281.00,-143.00,-1202.00,-4315.00
100.00,-137.00,-4485.00,-713.00,-1516.00,-4805.00
142.00,-188.00,-4662.00,-1075.00,-1418.00,-5354.00
-31.00,-85.00,-4759.00,-749.00,-1121.00,-5916.00
-316.00,400.00,-4643.00,-734.00,-573.00,-6048.00
-468.00,818.00,-4244.00,-661.00,-293.00,-5496.00
-539.00,921.00,-4118.00,-172.00,-759.00,-4623.00
-381.00,901.00,-4278.00,-247.00,-1090.00,-3761.00
-152.00,444.00,-4464.00,-246.00,-1168.00,-3233.00
63.00,-55.00,-4702.00,347.00,-937.00,-3266.00
150.00,-490.00,-4790.00,399.00,-488.00,-3874.00
239.00,-840.00,-4725.00,-48.00,-307.00,-5064.00
98.00,-1023.00,-4657.00,-699.00,-612.00,-6874.00
-249.00,-869.00,-4543.00,-1646.00,-719.00,-8806.00
-649.00,-318.00,-4234.00,-1834.00,-559.00,-10149.00
-1408.00,538.00,-3749.00,-1374.00,-432.00,-10586.00
-1900.00,1595.00,-3315.00,320.00,-470.00,-9462.00
-1333.00,2369.00,-3230.00,1738.00,-1244.00,-6775.00
-710.00,2297.00,-3707.00,1780.00,-2402.00,-3462.00
-372.00,1102.00,-4735.00,1864.00,-3117.00,-1431.00
-355.00,122.00,-5521.00,1394.00,-2615.00,-1313.00
-170.00,-449.00,-5803.00,672.00,-1507.00,-2275.00
-11.00,-572.00,-5752.00,200.00,-727.00,-3483.00
-45.00,-537.00,-5490.00,-1055.00,114.00,-4508.00
-125.00,-712.00,-4991.00,-1812.00,738.00,-5561.00
-373.00,-829.00,-4442.00,-2768.00,962.00,-6887.00
-1261.00,-638.00,-3711.00,-3395.00,832.00,-8547.00
-2019.00,359.00,-3093.00,-2008.00,705.00,-9204.00
-1590.00,1839.00,-2780.00,-380.00,-234.00,-7583.00
-740.00,2327.00,-3324.00,555.00,-1885.00,-4293.00
-413.00,1617.00,-4377.00,70.00,-2675.00,-1628.00
-55.00,260.00,-5363.00,-457.00,-2034.00,-788.00
261.00,-641.00,-5758.00,-806.00,-655.00,-1451.00
423.00,-1098.00,-5591.00,-910.00,884.00,-2794.00
574.00,-1421.00,-5282.00,-830.00,2022.00,-4290.00
262.00,-1446.00,-4963.00,-1102.00,2645.00,-6167.00
-684.00,-1142.00,-4284.00,-1849.00,3165.00,-8249.00
-1827.00,-31.00,-3155.00,-1987.00,3069.00,-9717.00
-1792.00,1399.00,-2396.00,-1317.00,1740.00,-9110.00
-1135.00,1902.00,-2593.00,-818.00,-557.00,-6675.00
-534.00,1387.00,-3540.00,-713.00,-2105.00,-4293.00
-19.00,279.00,-4733.00,-425.00,-2089.00,-3188.00
315.00,-494.00,-5396.00,87.00,-721.00,-3413.00
453.00,-861.00,-5628.00,243.00,1108.00,-4311.00
202.00,-664.00,-5400.00,446.00,2760.00,-5309.00
-634.00,-412.00,-4778.00,-100.00,3548.00,-6378.00
-1606.00,338.00,-4086.00,-357.00,3368.00,-7177.00
-1716.00,1162.00,-3500.00,-618.00,2313.00,-6777.00
-1219.00,1368.00,-3531.00,-889.00,856.00,-5412.00
-610.00,1003.00,-4015.00,-905.00,94.00,-3990.00
-128.00,419.00,-4486.00,-963.00,-63.00,-3213.00
328.00,-357.00,-4823.00,-947.00,279.00,-3215.00
420.00,-645.00,-4961.00,-576.00,832.00,-3872.00
745.00,-674.00,-5040.00,-34.00,1683.00,-4506.00
391.00,-523.00,-4750.00,9.00,2446.00,-5049.00
-215.00,-304.00,-4425.00,216.00,2895.00,-5520.00
-800.00,-21.00,-3914.00,101.00,2831.00,-6017.00
-1315.00,270.00,-3500.00,240.00,1974.00,-6345.00
-1034.00,635.00,-3406.00,293.00,639.00,-6195.00
-747.00,804.00,-3690.00,157.00,-518.00,-5516.00
-424.00,515.00,-4251.00,-178.00,-1004.00,-4894.00
-212.00,82.00,-4678.00,-70.00,-858.00,-4631.00
-81.00,-149.00,-4890.00,-271.00,-416.00,-4840.00
67.00,-232.00,-5031.00,54.00,156.00,-5148.00
-91.00,-58.00,-5042.00,475.00,873.00,-5251.00
-264.00,369.00,-4912.00,1064.00,1542.00,-4887.00
-571.00,633.00,-4566.00,612.00,1730.00,-4182.00
-961.00,525.00,-4278.00,336.00,1427.00,-3647.00
-897.00,300.00,-4038.00,80.00,696.00,-3402.00
-573.00,100.00,-4058.00,-147.00,-137.00,-3400.00
-234.00,-304.00,-4307.00,-326.00,-681.00,-3584.00
-19.00,-505.00,-4591.00,-658.00,-712.00,-4089.00
-14.00,-576.00,-4709.00,-595.00,-561.00,-4810.00
-224.00,-221.00,-4664.00,-396.00,-303.00,-5273.00
-268.00,125.00,-4676.00,-112.00,-83.00,-5228.00
-369.00,547.00,-4643.00,-33.00,204.00,-4655.00
-146.00,532.00,-4520.00,-263.00,395.00,-3717.00
-248.00,412.00,-4518.00,-177.00,428.00,-2967.00
-387.00,15.00,-4398.00,-258.00,382.00,-2720.00
-597.00,29.00,-4321.00,219.00,-6.00,-2822.00
-534.00,69.00,-4296.00,-250.00,-329.00,-2909.00
-353.00,-200.00,-4360.00,-370.00,-708.00,-3070.00
-195.00,-233.00,-4456.00,-475.00,-744.00,-3383.00
-144.00,-436.00,-4408.00,-836.00,-561.00,-3817.00
-239.00,-291.00,-4366.00,-527.00,-389.00,-4281.00
-252.00,-86.00,-4150.00,-915.00,-310.00,-4430.00
-312.00,-11.00,-4009.00,-495.00,-803.00,-4389.00
-300.00,180.00,-4193.00,-36.00,-1484.00,-4265.00
-165.00,138.00,-4403.00,-316.00,-1860.00,-4091.00
-110.00,79.00,-4691.00,-92.00,-1877.00,-3986.00
-229.00,28.00,-4881.00,-245.00,-1401.00,-4078.00
-353.00,181.00,-4829.00,-167.00,-691.00,-3997.00
-477.00,388.00,-4555.00,-137.00,-80.00,-3509.00
-480.00,312.00,-4297.00,-321.00,281.00,-2802.00
-548.00,-3.00,-4074.00,-290.00,141.00,-2412.00
-476.00,-207.00,-4061.00,-347.00,-246.00,-2589.00
-413.00,-601.00,-4129.00,-461.00,-655.00,-3283.00
-456.00,-448.00,-4264.00,-393.00,-953.00,-4132.00
-419.00,-28.00,-4488.00,146.00,-929.00,-4479.00
-417.00,436.00,-4525.00,110.00,-634.00,-4054.00
-522.00,708.00,-4389.00,49.00,-238.00,-3091.00
-520.00,532.00,-4186.00,-281.00,-54.00,-2055.00
-423.00,150.00,-4076.00,-202.00,-237.00,-1452.00
-417.00,-403.00,-4167.00,353.00,-506.00,-1538.00
-374.00,-527.00,-4345.00,831.00,-712.00,-2202.00
-462.00,-255.00,-4549.00,854.00,-814.00,-2800.00
-553.00,129.00,-4715.00,1152.00,-620.00,-2830.00
-602.00,455.00,-4737.00,639.00,-73.00,-2302.00
-439.00,321.00,-4629.00,342.00,349.00,-1587.00
-516.00,-84.00,-4499.00,284.00,568.00,-1367.00
-451.00,-394.00,-4382.00,301.00,711.00,-1626.00
-244.00,-498.00,-4276.00,273.00,631.00,-2192.00
-312.00,-391.00,-4176.00,226.00,439.00,-2684.00
-390.00,-172.00,-4196.00,387.00,279.00,-2884.00
-206.00,218.00,-4157.00,253.00,248.00,-2622.00
391.00,363.00,-3999.00,452.00,124.00,-1494.00
-936.00,103.00,-4026.00,1097.00,-168.00,-844.00
-956.00,-497.00,-4077.00,523.00,-243.00,-1114.00
-684.00,-622.00,-4073.00,1305.00,-516.00,-1770.00
-644.00,-515.00,-4226.00,1286.00,-1060.00,-2414.00
-185.00,-154.00,-4660.00,1447.00,-1140.00,-2770.00
-140.00,112.00,-4932.00,1338.00,-656.00,-2626.00
-209.00,349.00,-5032.00,925.00,118.00,-2038.00
-263.00,452.00,-4957.00,805.00,846.00,-1270.00
-275.00,458.00,-4774.00,537.00,1506.00,-371.00
-432.00,273.00,-4519.00,247.00,1831.00,459.00
-459.00,28.00,-4224.00,-2.00,1822.00,946.00
-484.00,-224.00,-3968.00,-145.00,1374.00,1093.00
-503.00,-664.00,-4005.00,110.00,462.00,784.00
-419.00,-747.00,-4196.00,383.00,-111.00,119.00
-390.00,-644.00,-4355.00,402.00,-351.00,-571.00
-438.00,-315.00,-4450.00,246.00,-463.00,-841.00
-389.00,-139.00,-4601.00,596.00,-509.00,-804.00
-413.00,-59.00,-4721.00,522.00,-322.00,-617.00
-373.00,-148.00,-4764.00,278.00,-108.00,-493.00
-326.00,-199.00,-4787.00,487.00,12.00,-469.00
-186.00,-4.00,-4882.00,473.00,161.00,-319.00
-214.00,69.00,-4998.00,149.00,417.00,-42.00
-320.00,59.00,-4974.00,-402.00,826.00,242.00
-208.00,-128.00,-4817.00,-560.00,1021.00,409.00
-253.00,-155.00,-4646.00,-712.00,1044.00,541.00
-311.00,-330.00,-4526.00,-659.00,1031.00,574.00
-184.00,-398.00,-4430.00,-594.00,965.00,407.00
-175.00,-413.00,-4220.00,-606.00,809.00,205.00
-224.00,-345.00,-4137.00,-700.00,540.00,135.00
-180.00,-381.00,-4107.00,-477.00,159.00,11.00
-243.00,-353.00,-4193.00,-320.00,-129.00,-146.00
-244.00,-253.00,-4281.00,-215.00,-223.00,-229.00
-55.00,-112.00,-4428.00,-126.00,-236.00,-85.00
-167.00,-62.00,-4496.00,-302.00,-145.00,98.00
-318.00,-180.00,-4525.00,-218.00,134.00,210.00
-252.00,-210.00,-4432.00,14.00,357.00,339.00
-329.00,-213.00,-4297.00,171.00,287.00,406.00
-345.00,-168.00,-4298.00,77.00,140.00,509.00
-195.00,-268.00,-4421.00,107.00,12.00,526.00
-235.00,-333.00,-4515.00,-38.00,85.00,390.00
-214.00,-290.00,-4550.00,-299.00,354.00,242.00
-307.00,-382.00,-4348.00,-682.00,602.00,60.00
-328.00,-330.00,-4120.00,-669.00,557.00,-146.00
-278.00,-305.00,-3948.00,-809.00,145.00,-216.00
-321.00,-176.00,-4053.00,-402.00,-389.00,-124.00
-343.00,-213.00,-4227.00,-201.00,-588.00,-51.00
-213.00,-254.00,-4425.00,-31.00,-577.00,-72.00
-195.00,-54.00,-4588.00,20.00,-452.00,23.00
-192.00,-58.00,-4712.00,268.00,-243.00,181.00
-232.00,33.00,-4727.00,-142.00,155.00,375.00
-234.00,-24.00,-4561.00,-313.00,511.00,588.00
-159.00,-221.00,-4330.00,-626.00,670.00,611.00
-280.00,-395.00,-4093.00,-629.00,550.00,338.00
-408.00,-451.00,-3921.00,-626.00,236.00,-24.00
-263.00,-258.00,-3938.00,-42.00,-369.00,-295.00
-271.00,-14.00,-4265.00,-71.00,-820.00,-358.00
-423.00,118.00,-4509.00,-227.00,-631.00,-194.00
-442.00,215.00,-4557.00,-115.00,-172.00,233.00
-311.00,265.00,-4525.00,40.00,-52.00,781.00
-291.00,281.00,-4673.00,5.00,-27.00,1212.00
-454.00,193.00,-4720.00,-412.00,254.00,1540.00
-327.00,214.00,-4668.00,-519.00,552.00,1933.00
-125.00,208.00,-4591.00,-440.00,689.00,2421.00
-317.00,51.00,-4638.00,-518.00,878.00,2713.00
-446.00,-99.00,-4527.00,-594.00,1229.00,2832.00
-316.00,-198.00,-4291.00,-165.00,1171.00,2853.00
-370.00,-150.00,-4100.00,-636.00,803.00,2695.00
-538.00,-147.00,-3972.00,-752.00,297.00,2501.00
-382.00,-111.00,-4044.00,-234.00,-395.00,2510.00
-250.00,177.00,-4355.00,-291.00,-809.00,2698.00
-408.00,45.00,-4604.00,-193.00,-769.00,2890.00
-136.00,31.00,-4756.00,-104.00,-431.00,3061.00
60.00,-14.00,-4821.00,-290.00,-82.00,3171.00
-149.00,-89.00,-4786.00,-407.00,433.00,3151.00
-296.00,99.00,-4601.00,-307.00,1014.00,3274.00
-84.00,372.00,-4398.00,252.00,1114.00,3803.00
-258.00,657.00,-4367.00,16.00,987.00,4617.00
-375.00,618.00,-4473.00,-286.00,937.00,5465.00
-351.00,352.00,-4568.00,52.00,973.00,6237.00
-277.00,-26.00,-4582.00,-16.00,950.00,6419.00
-429.00,-343.00,-4573.00,-19.00,956.00,6005.00
-290.00,-426.00,-4655.00,474.00,980.00,5503.00
-134.00,-200.00,-4618.00,479.00,1006.00,5150.00
-162.00,-228.00,-4469.00,48.00,1060.00,4873.00
-396.00,-119.00,-4308.00,316.00,1034.00,4706.00
-439.00,29.00,-4078.00,110.00,915.00,4718.00
-441.00,94.00,-3892.00,-21.00,525.00,4905.00
-412.00,194.00,-3868.00,-476.00,-84.00,5114.00
40.00,-20.00,-4058.00,-440.00,-940.00,5339.00
30.00,-157.00,-4505.00,-339.00,-1333.00,5249.00
-191.00,-234.00,-4749.00,-370.00,-758.00,4853.00
-203.00,-125.00,-4724.00,-633.00,144.00,4411.00
-159.00,-97.00,-4578.00,-259.00,628.00,4165.00
-229.00,267.00,-4393.00,-85.00,776.00,4188.00
-115.00,206.00,-4319.00,-727.00,692.00,4355.00
-181.00,143.00,-4352.00,-636.00,495.00,4398.00
-360.00,263.00,-4391.00,-569.00,527.00,4465.00
-376.00,318.00,-4367.00,-159.00,567.00,4641.00
-252.00,388.00,-4391.00,244.00,573.00,4931.00
-131.00,420.00,-4346.00,208.00,656.00,5277.00
122.00,245.00,-4353.00,192.00,698.00,5643.00
437.00,89.00,-4550.00,1371.00,447.00,6060.00
252.00,393.00,-4787.00,1895.00,337.00,6511.00
-39.00,530.00,-4879.00,2204.00,434.00,7021.00
-365.00,490.00,-4854.00,1469.00,597.00,7452.00
-341.00,144.00,-4951.00,1094.00,980.00,7380.00
-318.00,-79.00,-4810.00,887.00,1502.00,6940.00
-453.00,-80.00,-4551.00,745.00,1748.00,6238.00
-646.00,110.00,-4310.00,438.00,1860.00,5738.00
-701.00,286.00,-4031.00,18.00,1899.00,5489.00
-170.00,462.00,-3786.00,-41.00,1531.00,5913.00
465.00,303.00,-3807.00,-315.00,536.00,6692.00
545.00,-202.00,-4075.00,-1188.00,-334.00,6963.00
386.00,-702.00,-4408.00,-1204.00,-448.00,6331.00
46.00,-791.00,-4634.00,-269.00,31.00,5079.00
-267.00,-304.00,-4538.00,50.00,533.00,3990.00
-246.00,314.00,-4267.00,599.00,640.00,3663.00
-53.00,852.00,-4241.00,1353.00,316.00,4262.00
-155.00,1071.00,-4435.00,2194.00,292.00,5446.00
-455.00,1000.00,-4586.00,2941.00,873.00,6594.00
-433.00,772.00,-4387.00,3080.00,1332.00,7494.00
88.00,215.00,-4296.00,2966.00,1170.00,8047.00
340.00,-342.00,-4428.00,2246.00,864.00,7882.00
178.00,-778.00,-4556.00,2163.00,1116.00,6980.00
18.00,-731.00,-4506.00,2742.00,1709.00,5753.00
-193.00,-136.00,-4398.00,3506.00,2073.00,5029.00
-199.00,586.00,-4321.00,3976.00,2208.00,5340.00
-31.00,997.00,-4425.00,4188.00,2324.00,6657.00
98.00,973.00,-4566.00,4042.00,2477.00,8284.00
65.00,378.00,-4471.00,2715.00,2603.00,9164.00
-235.00,-455.00,-4293.00,2252.00,2542.00,8908.00
-129.00,-712.00,-4133.00,1846.00,2359.00,8018.00
282.00,-916.00,-4198.00,1453.00,1834.00,7150.00
626.00,-976.00,-4419.00,1621.00,1398.00,6534.00
902.00,-1038.00,-4749.00,1795.00,1428.00,6095.00
695.00,-1046.00,-5113.00,1890.00,2021.00,5469.00
231.00,-863.00,-5009.00,2291.00,3188.00,4555.00
101.00,-353.00,-4332.00,1197.00,3826.00,3886.00
275.00,-534.00,-3577.00,317.00,3232.00,3558.00
249.00,-656.00,-3343.00,812.00,2069.00,3287.00
159.00,-511.00,-3358.00,788.00,1008.00,2780.00
154.00,-418.00,-3482.00,832.00,285.00,2374.00
358.00,-149.00,-3661.00,944.00,-514.00,2388.00
494.00,-88.00,-4075.00,591.00,-1010.00,2687.00
538.00,-175.00,-4337.00,134.00,-959.00,3028.00
486.00,-625.00,-4484.00,-150.00,-931.00,2907.00
436.00,-814.00,-4475.00,-313.00,-942.00,2318.00
437.00,-849.00,-4522.00,-482.00,-995.00,1639.00
240.00,-706.00,-4616.00,-26.00,-1021.00,1092.00
91.00,-240.00,-4757.00,189.00,-631.00,839.00
58.00,8.00,-4734.00,241.00,-289.00,970.00
-33.00,252.00,-4693.00,191.00,-71.00,1349.00
-111.00,244.00,-4564.00,-133.00,138.00,1792.00
-77.00,116.00,-4327.00,-236.00,50.00,2216.00
105.00,-62.00,-4228.00,-600.00,-330.00,2512.00
189.00,-396.00,-4299.00,-862.00,-759.00,2596.00
438.00,-753.00,-4502.00,-1123.00,-1128.00,2326.00
432.00,-990.00,-4758.00,-1239.00,-1228.00,1653.00
256.00,-980.00,-4892.00,-1175.00,-852.00,706.00
142.00,-544.00,-4678.00,-912.00,-480.00,64.00
138.00,-71.00,-4522.00,-886.00,-393.00,61.00
7.00,133.00,-4387.00,-779.00,-515.00,478.00
-15.00,208.00,-4421.00,-692.00,-668.00,1040.00
92.00,-28.00,-4547.00,-513.00,-878.00,1481.00
88.00,-270.00,-4760.00,-293.00,-832.00,1595.00
176.00,-420.00,-4827.00,-309.00,-515.00,1496.00
252.00,-486.00,-4793.00,-44.00,-169.00,1350.00
158.00,-364.00,-4735.00,239.00,125.00,1243.00
209.00,-195.00,-4582.00,304.00,327.00,1327.00
254.00,-115.00,-4423.00,-8.00,388.00,1569.00
259.00,-249.00,-4280.00,-301.00,220.00,1737.00
102.00,-350.00,-4176.00,-635.00,-75.00,1638.00
31.00,-425.00,-4104.00,-884.00,-360.00,1355.00
-9.00,-362.00,-4028.00,-1163.00,-744.00,1146.00
90.00,-295.00,-4095.00,-1227.00,-1154.00,989.00
262.00,-370.00,-4312.00,-1251.00,-1430.00,943.00
494.00,-539.00,-4473.00,-1146.00,-1418.00,826.00
429.00,-678.00,-4681.00,-957.00,-1168.00,480.00
362.00,-629.00,-4826.00,-616.00,-591.00,18.00
212.00,-364.00,-4760.00,-48.00,180.00,-228.00
233.00,-39.00,-4474.00,202.00,712.00,-112.00
206.00,59.00,-4220.00,338.00,750.00,274.00
65.00,19.00,-3953.00,170.00,509.00,569.00
77.00,-43.00,-3894.00,36.00,49.00,772.00
66.00,-145.00,-3919.00,-159.00,-508.00,805.00
56.00,-223.00,-4144.00,-360.00,-888.00,743.00
138.00,-317.00,-4360.00,-481.00,-899.00,591.00
177.00,-343.00,-4441.00,-469.00,-798.00,425.00
182.00,-399.00,-4526.00,-382.00,-673.00,264.00
147.00,-405.00,-4560.00,-186.00,-489.00,-11.00
97.00,-282.00,-4590.00,-80.00,-260.00,-209.00
104.00,-158.00,-4506.00,23.00,-192.00,-223.00
-7.00,-61.00,-4520.00,7.00,-194.00,-115.00
-16.00,63.00,-4453.00,76.00,-218.00,49.00
-10.00,86.00,-4493.00,3.00,-290.00,271.00
-1.00,78.00,-4562.00,-30.00,-256.00,543.00
21.00,21.00,-4576.00,-137.00,-179.00,758.00
10.00,-96.00,-4559.00,-132.00,-154.00,879.00
75.00,-140.00,-4560.00,-328.00,-69.00,885.00
46.00,-239.00,-4504.00,-319.00,17.00,821.00
46.00,-224.00,-4490.00,-380.00,70.00,721.00
19.00,-199.00,-4382.00,-426.00,44.00,599.00
53.00,-168.00,-4340.00,-474.00,-90.00,550.00
81.00,-127.00,-4373.00,-644.00,-156.00,555.00
62.00,-97.00,-4352.00,-732.00,-210.00,662.00
-93.00,-65.00,-4386.00,-571.00,-305.00,691.00
-78.00,-61.00,-4427.00,-744.00,-332.00,656.00
10.00,14.00,-4429.00,-677.00,-374.00,722.00
168.00,42.00,-4398.00,-797.00,-380.00,936.00
192.00,-79.00,-4473.00,-715.00,-430.00,1147.00
103.00,-257.00,-4570.00,-659.00,-282.00,1106.00
54.00,-353.00,-4525.00,-512.00,-79.00,826.00
14.00,-348.00,-4486.00,-177.00,-35.00,545.00
112.00,-249.00,-4447.00,44.00,19.00,385.00
110.00,-211.00,-4384.00,59.00,-5.00,266.00
107.00,-233.00,-4437.00,98.00,-84.00,143.00
128.00,-165.00,-4489.00,150.00,-99.00,60.00
153.00,-113.00,-4502.00,143.00,-9.00,70.00
165.00,-79.00,-4422.00,149.00,111.00,138.00
70.00,-44.00,-4426.00,152.00,210.00,213.00
-20.00,-14.00,-4383.00,215.00,184.00,257.00
-79.00,44.00,-4329.00,243.00,-26.00,302.00
-90.00,79.00,-4320.00,72.00,-233.00,361.00
42.00,-64.00,-4422.00,-260.00,-384.00,395.00
70.00,-145.00,-4509.00,-169.00,-378.00,388.00
31.00,-187.00,-4607.00,11.00,-231.00,289.00
2.00,-84.00,-4594.00,37.00,-17.00,212.00
17.00,-46.00,-4577.00,80.00,122.00,220.00
46.00,-19.00,-4517.00,257.00,207.00,370.00
69.00,-28.00,-4463.00,286.00,260.00,527.00
58.00,-191.00,-4420.00,68.00,217.00,522.00
61.00,-289.00,-4414.00,47.00,90.00,341.00
0.00,-354.00,-4423.00,-106.00,-7.00,43.00
-60.00,-268.00,-4443.00,19.00,-27.00,-210.00
-74.00,-63.00,-4390.00,89.00,-109.00,-277.00
66.00,108.00,-4407.00,-77.00,-245.00,-37.00
84.00,71.00,-4455.00,-149.00,-302.00,278.00
33.00,-55.00,-4494.00,-188.00,-191.00,459.00
-28.00,-139.00,-4539.00,-117.00,-66.00,436.00
-7.00,-193.00,-4465.00,-11.00,-23.00,341.00
40.00,-242.00,-4447.00,126.00,-44.00,228.00
20.00,-196.00,-4453.00,354.00,25.00,141.00
59.00,-109.00,-4444.00,329.00,56.00,143.00
12.00,-151.00,-4472.00,340.00,50.00,129.00
-60.00,-120.00,-4462.00,361.00,81.00,101.00
-78.00,-41.00,-4435.00,366.00,133.00,116.00
-84.00,96.00,-4393.00,310.00,119.00,260.00
3.00,100.00,-4398.00,203.00,65.00,520.00
31.00,-14.00,-4428.00,79.00,2.00,709.00
25.00,-154.00,-4420.00,-34.00,-47.00,720.00
37.00,-294.00,-4385.00,-79.00,-128.00,550.00
27.00,-276.00,-4449.00,-28.00,-192.00,317.00
67.00,-128.00,-4488.00,115.00,-173.00,223.00
145.00,26.00,-4562.00,141.00,-95.00,383.00
177.00,46.00,-4562.00,198.00,23.00,637.00
156.00,42.00,-4563.00,300.00,226.00,801.00
269.00,-45.00,-4478.00,198.00,356.00,911.00
359.00,-130.00,-4377.00,233.00,337.00,976.00
338.00,-238.00,-4367.00,271.00,297.00,908.00
368.00,-315.00,-4264.00,300.00,259.00,688.00
423.00,-295.00,-4334.00,367.00,98.00,422.00
423.00,-285.00,-4312.00,276.00,-104.00,130.00
491.00,-202.00,-4313.00,156.00,-310.00,-121.00
506.00,-90.00,-4368.00,140.00,-545.00,-235.00
630.00,45.00,-4486.00,-86.00,-720.00,-161.00
720.00,19.00,-4623.00,-255.00,-725.00,39.00
751.00,-118.00,-4829.00,-242.00,-577.00,161.00
682.00,-194.00,-4901.00,-182.00,-248.00,48.00
668.00,-200.00,-4900.00,30.00,160.00,-120.00
640.00,-42.00,-4788.00,273.00,370.00,-124.00
804.00,-57.00,-4737.00,58.00,333.00,-7.00
801.00,-4.00,-4723.00,394.00,377.00,285.00
882.00,38.00,-4791.00,611.00,513.00,597.00
847.00,-17.00,-4778.00,765.00,671.00,877.00
786.00,-150.00,-4685.00,421.00,817.00,952.00
788.00,-336.00,-4602.00,394.00,874.00,829.00
862.00,-436.00,-4468.00,136.00,870.00,564.00
901.00,-652.00,-4360.00,184.00,843.00,177.00
876.00,-646.00,-4292.00,227.00,824.00,-291.00
747.00,-631.00,-4264.00,128.00,788.00,-804.00
673.00,-520.00,-4245.00,401.00,699.00,-1152.00
439.00,-258.00,-4249.00,520.00,556.00,-1282.00
373.00,-151.00,-4269.00,-321.00,484.00,-1391.00
280.00,-168.00,-4280.00,-520.00,508.00,-1486.00
196.00,-40.00,-4249.00,-403.00,497.00,-1468.00
319.00,54.00,-4184.00,-189.00,134.00,-1153.00
133.00,121.00,-4313.00,-395.00,-141.00,-781.00
1.00,29.00,-4469.00,-409.00,-210.00,-483.00
143.00,-94.00,-4608.00,-152.00,-112.00,-201.00
309.00,-101.00,-4763.00,237.00,-116.00,315.00
545.00,-432.00,-4937.00,441.00,151.00,660.00
375.00,-640.00,-4921.00,1362.00,600.00,769.00
-128.00,-648.00,-4786.00,1425.00,1443.00,436.00
-401.00,-700.00,-4388.00,702.00,1902.00,-405.00
-478.00,-571.00,-3928.00,602.00,1462.00,-1121.00
-539.00,-351.00,-3694.00,43.00,503.00,-1517.00
-698.00,-273.00,-3784.00,184.00,-339.00,-1640.00
-847.00,-20.00,-3993.00,-15.00,-888.00,-1719.00
-780.00,62.00,-4181.00,-456.00,-1127.00,-1626.00
-715.00,104.00,-4473.00,-740.00,-1213.00,-1326.00
-761.00,12.00,-4624.00,-884.00,-1028.00,-1112.00
-831.00,-98.00,-4730.00,-661.00,-578.00,-1054.00
-866.00,-33.00,-4760.00,-356.00,-191.00,-974.00
-964.00,-2.00,-4714.00,-345.00,150.00,-840.00
-1196.00,4.00,-4522.00,-433.00,472.00,-813.00
-1179.00,21.00,-4437.00,-289.00,442.00,-749.00
-1202.00,80.00,-4295.00,-269.00,310.00,-590.00
-1139.00,102.00,-4282.00,-363.00,59.00,-332.00
-1173.00,28.00,-4318.00,-430.00,-180.00,-192.00
-1139.00,-75.00,-4366.00,-258.00,-260.00,-208.00
-1084.00,-87.00,-4443.00,-111.00,-160.00,-242.00
-1019.00,-46.00,-4409.00,-99.00,-68.00,-157.00
-983.00,-96.00,-4360.00,-68.00,-137.00,-2.00
-909.00,-144.00,-4300.00,-16.00,-228.00,96.00
-869.00,-191.00,-4381.00,-14.00,-255.00,144.00
-841.00,-220.00,-4395.00,55.00,-351.00,149.00
-839.00,-210.00,-4446.00,71.00,-392.00,134.00
-924.00,-109.00,-4483.00,304.00,-269.00,158.00
-838.00,46.00,-4400.00,479.00,-134.00,342.00
-777.00,2.00,-4337.00,331.00,-262.00,627.00
-804.00,-123.00,-4368.00,220.00,-519.00,806.00
-758.00,-269.00,-4456.00,-72.00,-716.00,768.00
-641.00,-414.00,-4519.00,-461.00,-890.00,569.00
-579.00,-457.00,-4622.00,-513.00,-1061.00,297.00
-580.00,-408.00,-4793.00,-627.00,-977.00,41.00
-602.00,-384.00,-4905.00,-694.00,-673.00,-203.00
-705.00,-224.00,-4892.00,-760.00,-305.00,-488.00
-725.00,-5.00,-4817.00,-809.00,-78.00,-541.00
-677.00,130.00,-4765.00,-579.00,46.00,-222.00
-660.00,185.00,-4741.00,-404.00,210.00,260.00
-721.00,93.00,-4778.00,-218.00,431.00,615.00
-740.00,-20.00,-4681.00,-139.00,648.00,781.00
-625.00,-10.00,-4587.00,181.00,731.00,936.00
-467.00,62.00,-4497.00,-30.00,674.00,1203.00
-387.00,-24.00,-4463.00,-199.00,503.00,1496.00
-376.00,-122.00,-4536.00,-338.00,414.00,1679.00
-355.00,-198.00,-4566.00,-437.00,554.00,1699.00
-257.00,-217.00,-4517.00,-660.00,798.00,1662.00
-287.00,-319.00,-4457.00,-625.00,835.00,1517.00
-242.00,-201.00,-4372.00,-840.00,871.00,1366.00
-157.00,-143.00,-4204.00,-904.00,848.00,1335.00
-137.00,-113.00,-4135.00,-891.00,619.00,1370.00
-94.00,-78.00,-4156.00,-718.00,375.00,1411.00
-63.00,-83.00,-4231.00,-358.00,317.00,1463.00
117.00,17.00,-4253.00,-253.00,301.00,1566.00
312.00,33.00,-4307.00,-161.00,290.00,1765.00
414.00,56.00,-4392.00,77.00,370.00,1969.00
569.00,102.00,-4476.00,-19.00,618.00,2126.00
650.00,81.00,-4429.00,-354.00,955.00,2250.00
777.00,-11.00,-4326.00,-665.00,1212.00,2248.00
825.00,-99.00,-4225.00,-855.00,1312.00,2109.00
833.00,-151.00,-4118.00,-870.00,1298.00,1811.00
994.00,-126.00,-3929.00,-979.00,1215.00,1549.00
1047.00,-182.00,-3746.00,-900.00,840.00,1310.00
1029.00,-122.00,-3709.00,-587.00,167.00,1053.00
1175.00,27.00,-3901.00,-375.00,-512.00,928.00
1363.00,87.00,-4135.00,-469.00,-867.00,925.00
1461.00,85.00,-4395.00,-455.00,-908.00,926.00
1626.00,39.00,-4528.00,-433.00,-544.00,934.00
1758.00,-27.00,-4554.00,-111.00,-97.00,1024.00
1657.00,-16.00,-4472.00,-47.00,242.00,1009.00
1549.00,-116.00,-4339.00,-76.00,368.00,862.00
1465.00,-185.00,-4269.00,210.00,334.00,629.00
1369.00,-115.00,-4192.00,108.00,155.00,315.00
1295.00,-100.00,-4242.00,185.00,-162.00,52.00
1247.00,8.00,-4227.00,24.00,-406.00,-103.00
1220.00,48.00,-4300.00,-164.00,-596.00,-140.00
1086.00,88.00,-4475.00,-114.00,-830.00,-218.00
1019.00,101.00,-4639.00,-216.00,-891.00,-298.00
1055.00,117.00,-4809.00,-222.00,-788.00,-309.00
902.00,169.00,-4948.00,-309.00,-520.00,-293.00
867.00,131.00,-5014.00,-128.00,-77.00,-342.00
827.00,212.00,-4969.00,54.00,407.00,-343.00
753.00,225.00,-4809.00,162.00,847.00,-298.00
736.00,186.00,-4645.00,255.00,1105.00,-235.00
564.00,246.00,-4415.00,186.00,1188.00,-180.00
443.00,99.00,-4189.00,-86.00,1062.00,-244.00
447.00,139.00,-4015.00,-201.00,620.00,-303.00
349.00,101.00,-4132.00,-444.00,157.00,-424.00
417.00,160.00,-4166.00,-133.00,-208.00,-453.00
397.00,144.00,-4408.00,-413.00,-248.00,-475.00
381.00,121.00,-4512.00,-190.00,-157.00,-490.00
416.00,84.00,-4538.00,-331.00,13.00,-521.00
326.00,140.00,-4553.00,-372.00,290.00,-484.00
267.00,160.00,-4495.00,-358.00,489.00,-364.00
310.00,135.00,-4373.00,-251.00,465.00,-179.00
225.00,187.00,-4364.00,-274.00,503.00,-27.00
185.00,108.00,-4380.00,-144.00,561.00,70.00
258.00,-46.00,-4288.00,-43.00,550.00,70.00
100.00,-20.00,-4279.00,-28.00,590.00,-36.00
202.00,-100.00,-4177.00,178.00,558.00,-196.00
175.00,-11.00,-4112.00,231.00,370.00,-272.00
73.00,-99.00,-4079.00,110.00,76.00,-410.00
27.00,-25.00,-4108.00,205.00,-239.00,-557.00
63.00,102.00,-4206.00,114.00,-439.00,-632.00
118.00,205.00,-4332.00,34.00,-547.00,-506.00
67.00,164.00,-4405.00,-3.00,-488.00,-353.00
22.00,174.00,-4460.00,52.00,-349.00,-273.00
86.00,103.00,-4477.00,159.00,-271.00,-153.00
101.00,51.00,-4464.00,167.00,-170.00,-110.00
32.00,-7.00,-4481.00,219.00,-45.00,-224.00
15.00,58.00,-4461.00,319.00,104.00,-307.00
-36.00,201.00,-4388.00,105.00,260.00,-360.00
42.00,232.00,-4310.00,253.00,183.00,-214.00
86.00,321.00,-4238.00,311.00,27.00,69.00
171.00,196.00,-4306.00,230.00,-123.00,298.00
47.00,130.00,-4396.00,485.00,-326.00,481.00
140.00,-33.00,-4482.00,288.00,-326.00,411.00
47.00,-105.00,-4565.00,379.00,-224.00,164.00
87.00,-71.00,-4540.00,187.00,-194.00,-123.00
119.00,-33.00,-4516.00,165.00,-110.00,-318.00
139.00,68.00,-4514.00,319.00,-157.00,-328.00
114.00,155.00,-4553.00,402.00,-172.00,-236.00
121.00,143.00,-4570.00,276.00,-173.00,-157.00
151.00,74.00,-4628.00,193.00,-69.00,-119.00
196.00,48.00,-4561.00,199.00,59.00,-142.00
110.00,51.00,-4519.00,373.00,53.00,-109.00
57.00,78.00,-4423.00,236.00,76.00,-178.00
79.00,103.00,-4371.00,250.00,-119.00,-146.00
27.00,122.00,-4457.00,68.00,-310.00,-94.00
55.00,-1.00,-4555.00,-39.00,-419.00,-152.00
118.00,-11.00,-4663.00,147.00,-386.00,-242.00
143.00,26.00,-4658.00,38.00,-190.00,-362.00
35.00,86.00,-4632.00,229.00,25.00,-365.00
13.00,204.00,-4556.00,86.00,199.00,-315.00
129.00,183.00,-4443.00,214.00,102.00,-124.00
-14.00,217.00,-4460.00,36.00,15.00,73.00
-5.00,81.00,-4430.00,-271.00,-34.00,21.00
-3.00,116.00,-4454.00,-58.00,-131.00,-4.00
19.00,138.00,-4480.00,-148.00,-194.00,52.00
22.00,93.00,-4498.00,-424.00,-122.00,16.00
123.00,61.00,-4453.00,-199.00,-69.00,2.00
54.00,178.00,-4395.00,-109.00,-46.00,39.00
19.00,133.00,-4405.00,-234.00,-75.00,47.00
107.00,101.00,-4376.00,-53.00,-135.00,52.00
129.00,100.00,-4446.00,-156.00,-156.00,64.00
190.00,68.00,-4413.00,-154.00,-160.00,63.00
185.00,66.00,-4441.00,-136.00,-109.00,67.00
141.00,93.00,-4413.00,-214.00,-23.00,81.00
134.00,99.00,-4330.00,-103.00,-69.00,72.00
222.00,102.00,-4311.00,-12.00,-152.00,109.00
229.00,33.00,-4309.00,-83.00,-244.00,117.00
175.00,-29.00,-4375.00,-47.00,-265.00,30.00
150.00,-17.00,-4412.00,-26.00,-278.00,-70.00
171.00,34.00,-4382.00,-136.00,-295.00,-190.00
180.00,87.00,-4399.00,-52.00,-357.00,-188.00
194.00,152.00,-4377.00,-11.00,-417.00,-104.00
214.00,165.00,-4439.00,42.00,-519.00,71.00
152.00,125.00,-4504.00,-41.00,-508.00,165.00
152.00,11.00,-4526.00,-223.00,-430.00,104.00
158.00,-22.00,-4502.00,-2.00,-322.00,9.00
134.00,-28.00,-4534.00,-65.00,-203.00,-100.00
110.00,-8.00,-4444.00,65.00,-97.00,-225.00
140.00,79.00,-4320.00,60.00,-117.00,-260.00
160.00,113.00,-4322.00,-19.00,-193.00,-201.00
134.00,126.00,-4373.00,65.00,-270.00,-162.00
137.00,145.00,-4441.00,33.00,-253.00,-119.00
81.00,130.00,-4388.00,-26.00,-157.00,-109.00
133.00,86.00,-4391.00,-21.00,-104.00,-131.00
66.00,106.00,-4352.00,80.00,-165.00,-145.00
48.00,138.00,-4375.00,-221.00,-225.00,-154.00
121.00,88.00,-4371.00,-205.00,-302.00,-122.00
162.00,145.00,-4358.00,-148.00,-340.00,35.00
130.00,83.00,-4390.00,-309.00,-364.00,52.00
123.00,27.00,-4456.00,-199.00,-398.00,10.00
136.00,67.00,-4501.00,-137.00,-339.00,-17.00
90.00,-7.00,-4554.00,-132.00,-247.00,-151.00
102.00,36.00,-4558.00,-54.00,-72.00,-323.00
73.00,129.00,-4460.00,115.00,70.00,-352.00
97.00,195.00,-4349.00,127.00,75.00,-291.00
51.00,164.00,-4325.00,83.00,-3.00,-210.00
23.00,203.00,-4376.00,142.00,-97.00,-177.00
49.00,198.00,-4391.00,-15.00,-193.00,-147.00
61.00,175.00,-4400.00,-122.00,-293.00,-126.00
-3.00,171.00,-4477.00,-73.00,-391.00,-149.00
24.00,171.00,-4534.00,-177.00,-401.00,-141.00
49.00,154.00,-4553.00,-156.00,-328.00,-81.00
94.00,121.00,-4544.00,-131.00,-222.00,-2.00
88.00,74.00,-4505.00,-104.00,-129.00,-2.00
8.00,38.00,-4414.00,-80.00,-107.00,-32.00
1.00,33.00,-4409.00,-143.00,-189.00,-79.00
44.00,56.00,-4425.00,-163.00,-339.00,-115.00
116.00,54.00,-4496.00,-184.00,-478.00,-77.00
170.00,23.00,-4579.00,-322.00,-456.00,-67.00
123.00,-69.00,-4667.00,-353.00,-295.00,-150.00
182.00,-80.00,-4584.00,-283.00,-44.00,-310.00
263.00,-60.00,-4456.00,-111.00,32.00,-361.00
161.00,34.00,-4325.00,-193.00,-37.00,-388.00
141.00,-2.00,-4337.00,-98.00,-321.00,-471.00
163.00,107.00,-4416.00,-234.00,-524.00,-545.00
256.00,35.00,-4442.00,-320.00,-658.00,-654.00
202.00,129.00,-4569.00,-222.00,-670.00,-811.00
136.00,178.00,-4619.00,-288.00,-544.00,-994.00
206.00,351.00,-4586.00,-199.00,-361.00,-1146.00
153.00,442.00,-4519.00,-241.00,-183.00,-1250.00
41.00,636.00,-4434.00,-190.00,-131.00,-1390.00
-7.00,747.00,-4336.00,-73.00,-263.00,-1527.00
83.00,947.00,-4307.00,210.00,-544.00,-1564.00
-17.00,1168.00,-4332.00,-48.00,-735.00,-1555.00
-66.00,1208.00,-4371.00,-154.00,-759.00,-1542.00
-15.00,1405.00,-4330.00,-98.00,-780.00,-1404.00
-6.00,1462.00,-4317.00,-5.00,-832.00,-1131.00
-97.00,1504.00,-4339.00,-3.00,-794.00,-858.00
-222.00,1426.00,-4367.00,200.00,-795.00,-614.00
-229.00,1423.00,-4450.00,364.00,-814.00,-363.00
-187.00,1354.00,-4635.00,294.00,-771.00,-84.00
-55.00,1257.00,-4774.00,220.00,-613.00,192.00
-40.00,1133.00,-4835.00,72.00,-299.00,364.00
-74.00,1037.00,-4869.00,20.00,121.00,382.00
-99.00,1010.00,-4855.00,115.00,636.00,366.00
-114.00,1063.00,-4684.00,199.00,1116.00,455.00
-195.00,1121.00,-4458.00,166.00,1475.00,677.00
-273.00,1086.00,-4205.00,356.00,1632.00,1050.00
-151.00,955.00,-3896.00,171.00,1466.00,1493.00
-38.00,642.00,-3659.00,-194.00,992.00,1863.00
52.00,195.00,-3620.00,-437.00,398.00,1994.00
126.00,-231.00,-3721.00,-458.00,-110.00,1768.00
168.00,-547.00,-3866.00,-432.00,-412.00,1199.00
92.00,-660.00,-4054.00,-6.00,-474.00,706.00
184.00,-527.00,-4165.00,478.00,-480.00,556.00
355.00,-440.00,-4411.00,685.00,-525.00,804.00
320.00,-535.00,-4642.00,760.00,-401.00,1099.00
111.00,-727.00,-4851.00,970.00,-5.00,1139.00
54.00,-841.00,-4758.00,729.00,362.00,904.00
2.00,-779.00,-4652.00,759.00,426.00,696.00
36.00,-782.00,-4488.00,502.00,312.00,594.00
-45.00,-722.00,-4437.00,290.00,115.00,587.00
9.00,-763.00,-4430.00,760.00,42.00,683.00
10.00,-761.00,-4482.00,480.00,76.00,692.00
-81.00,-847.00,-4469.00,373.00,194.00,656.00
-77.00,-873.00,-4372.00,189.00,305.00,594.00
-71.00,-1014.00,-4288.00,40.00,219.00,474.00
-63.00,-1074.00,-4294.00,126.00,-73.00,348.00
-118.00,-1081.00,-4437.00,83.00,-193.00,145.00
-223.00,-1004.00,-4627.00,188.00,-136.00,-111.00
-264.00,-894.00,-4712.00,243.00,24.00,-193.00
-240.00,-771.00,-4754.00,13.00,194.00,-56.00
-64.00,-838.00,-4776.00,-128.00,384.00,116.00
1.00,-925.00,-4697.00,-253.00,610.00,211.00
-62.00,-1056.00,-4590.00,-348.00,861.00,133.00
-85.00,-1097.00,-4368.00,-329.00,1104.00,-127.00
-150.00,-1021.00,-4084.00,-144.00,1201.00,-422.00
-194.00,-844.00,-3805.00,27.00,915.00,-540.00
-259.00,-729.00,-3751.00,-226.00,546.00,-606.00
-239.00,-702.00,-3755.00,70.00,70.00,-569.00
-232.00,-695.00,-3903.00,-60.00,-365.00,-584.00
-254.00,-748.00,-4093.00,-159.00,-741.00,-714.00
-261.00,-763.00,-4332.00,-192.00,-956.00,-934.00
-284.00,-656.00,-4551.00,-475.00,-1039.00,-1130.00
-248.00,-601.00,-4809.00,-236.00,-1137.00,-1122.00
-53.00,-591.00,-5025.00,-279.00,-979.00,-973.00
-227.00,-435.00,-5156.00,-556.00,-394.00,-845.00
-242.00,-578.00,-5117.00,-575.00,223.00,-796.00
-180.00,-519.00,-4900.00,-281.00,454.00,-761.00
-261.00,-498.00,-4775.00,-337.00,599.00,-663.00
-144.00,-500.00,-4678.00,-413.00,788.00,-634.00
-174.00,-503.00,-4554.00,-103.00,903.00,-580.00
-66.00,-479.00,-4358.00,-518.00,1038.00,-658.00
-173.00,-436.00,-4203.00,-536.00,1050.00,-812.00
160.00,-551.00,-4020.00,-852.00,540.00,-1078.00
309.00,-456.00,-4042.00,-781.00,-240.00,-1202.00
212.00,-544.00,-4236.00,-1197.00,-641.00,-1271.00
220.00,-655.00,-4265.00,-1065.00,-829.00,-1488.00
128.00,-553.00,-4247.00,-1349.00,-1055.00,-1785.00
179.00,-598.00,-4412.00,-1024.00,-1582.00,-2066.00
353.00,-321.00,-4721.00,-321.00,-2244.00,-2190.00
422.00,-15.00,-5220.00,-429.00,-2400.00,-2255.00
180.00,83.00,-5780.00,-610.00,-1580.00,-2371.00
129.00,279.00,-5837.00,-657.00,-14.00,-2421.00
247.00,453.00,-5399.00,-543.00,1321.00,-2261.00
167.00,588.00,-4957.00,-305.00,2182.00,-1789.00
126.00,534.00,-4368.00,-2.00,2590.00,-1245.00
-7.00,348.00,-3980.00,47.00,2580.00,-1106.00
20.00,299.00,-3612.00,677.00,1794.00,-1400.00
-18.00,434.00,-3670.00,293.00,712.00,-1911.00
-16.00,608.00,-3892.00,214.00,-222.00,-2566.00
-253.00,1025.00,-4170.00,-525.00,-650.00,-3188.00
-287.00,1343.00,-4260.00,-946.00,-606.00,-3500.00
-284.00,1825.00,-4091.00,-703.00,-667.00,-3199.00
-124.00,2267.00,-4173.00,-368.00,-1077.00,-2209.00
-75.00,2308.00,-4438.00,-781.00,-1155.00,-1009.00
-98.00,2004.00,-4721.00,-409.00,-654.00,-90.00
-346.00,1787.00,-4739.00,-478.00,238.00,246.00
-169.00,1372.00,-4455.00,-38.00,637.00,219.00
-141.00,1375.00,-4301.00,686.00,335.00,205.00
-19.00,1353.00,-4292.00,317.00,-156.00,55.00
8.00,1271.00,-4491.00,580.00,-571.00,6.00
182.00,1250.00,-4707.00,434.00,-688.00,-73.00
225.00,1225.00,-4916.00,576.00,-726.00,-87.00
250.00,1307.00,-5011.00,223.00,-526.00,-132.00
81.00,1270.00,-5019.00,-17.00,-85.00,-215.00
98.00,1293.00,-4913.00,-206.00,322.00,-229.00
16.00,1346.00,-4744.00,-302.00,480.00,-198.00
-104.00,1324.00,-4558.00,-277.00,506.00,-177.00
-124.00,1338.00,-4452.00,99.00,442.00,-35.00
-164.00,1437.00,-4361.00,315.00,455.00,259.00
-199.00,1404.00,-4322.00,203.00,538.00,567.00
-227.00,1275.00,-4220.00,195.00,514.00,785.00
-227.00,1158.00,-4197.00,89.00,384.00,876.00
-223.00,1006.00,-4214.00,-72.00,217.00,917.00
-156.00,937.00,-4306.00,-162.00,125.00,935.00
-45.00,837.00,-4332.00,-371.00,153.00,967.00
49.00,683.00,-4298.00,-361.00,158.00,1063.00
87.00,602.00,-4339.00,-368.00,167.00,1116.00
161.00,470.00,-4330.00,-301.00,176.00,1090.00
176.00,333.00,-4281.00,-366.00,158.00,883.00
196.00,291.00,-4294.00,-346.00,100.00,615.00
231.00,303.00,-4344.00,-200.00,55.00,362.00
213.00,414.00,-4425.00,-40.00,190.00,190.00
199.00,521.00,-4378.00,10.00,423.00,152.00
68.00,612.00,-4324.00,122.00,759.00,165.00
6.00,684.00,-4184.00,171.00,973.00,215.00
-164.00,756.00,-4054.00,425.00,1002.00,337.00
-249.00,865.00,-3921.00,439.00,856.00,493.00
-243.00,809.00,-3829.00,370.00,562.00,742.00
-191.00,732.00,-3854.00,379.00,198.00,1016.00
-129.00,582.00,-3914.00,112.00,-237.00,1192.00
-13.00,297.00,-4123.00,7.00,-624.00,1290.00
148.00,65.00,-4365.00,-87.00,-793.00,1213.00
199.00,-88.00,-4600.00,72.00,-736.00,965.00
204.00,-130.00,-4744.00,259.00,-391.00,620.00
289.00,-138.00,-4867.00,543.00,145.00,327.00
281.00,37.00,-4939.00,960.00,813.00,160.00
241.00,184.00,-4920.00,1166.00,1492.00,133.00
78.00,297.00,-4747.00,1446.00,2164.00,197.00
-78.00,405.00,-4384.00,1402.00,2475.00,341.00
-183.00,389.00,-3968.00,1325.00,2336.00,566.00
-192.00,292.00,-3615.00,1051.00,1645.00,832.00
-97.00,141.00,-3469.00,806.00,482.00,1089.00
-16.00,-104.00,-3649.00,434.00,-626.00,1253.00
192.00,-385.00,-3966.00,182.00,-1325.00,1250.00
372.00,-570.00,-4382.00,64.00,-1498.00,1066.00
446.00,-653.00,-4704.00,233.00,-1350.00,792.00
385.00,-681.00,-4894.00,335.00,-930.00,441.00
349.00,-617.00,-5019.00,491.00,-335.00,66.00
310.00,-435.00,-4981.00,672.00,129.00,-168.00
152.00,-228.00,-4789.00,632.00,453.00,-192.00
100.00,-90.00,-4592.00,666.00,709.00,-49.00
8.00,9.00,-4397.00,614.00,780.00,211.00
-4.00,-27.00,-4201.00,538.00,674.00,459.00
0.00,-104.00,-4056.00,424.00,409.00,595.00
-10.00,-219.00,-4091.00,244.00,79.00,557.00
-39.00,-296.00,-4052.00,337.00,-190.00,433.00
9.00,-299.00,-4151.00,166.00,-467.00,243.00
68.00,-265.00,-4261.00,68.00,-640.00,95.00
124.00,-197.00,-4387.00,107.00,-725.00,17.00
214.00,-206.00,-4514.00,224.00,-669.00,9.00
233.00,-130.00,-4619.00,279.00,-429.00,50.00
144.00,-141.00,-4642.00,221.00,-114.00,56.00
69.00,-111.00,-4570.00,228.00,181.00,-16.00
73.00,-47.00,-4421.00,329.00,278.00,-62.00
57.00,77.00,-4307.00,345.00,169.00,-25.00
-17.00,99.00,-4214.00,309.00,26.00,72.00
-43.00,89.00,-4187.00,155.00,-120.00,116.00
-70.00,40.00,-4176.00,173.00,-295.00,103.00
-72.00,63.00,-4303.00,349.00,-460.00,69.00
-25.00,70.00,-4351.00,358.00,-566.00,57.00
12.00,75.00,-4479.00,351.00,-562.00,89.00
75.00,37.00,-4551.00,320.00,-424.00,120.00
150.00,37.00,-4647.00,386.00,-261.00,155.00
155.00,-1.00,-4665.00,310.00,-29.00,156.00
121.00,-48.00,-4664.00,276.00,184.00,117.00
170.00,-23.00,-4535.00,355.00,404.00,92.00
145.00,-39.00,-4382.00,300.00,435.00,58.00
115.00,-57.00,-4263.00,329.00,327.00,30.00
52.00,-2.00,-4162.00,441.00,79.00,-16.00
90.00,24.00,-4214.00,582.00,-157.00,-25.00
14.00,62.00,-4265.00,257.00,-289.00,-58.00
19.00,26.00,-4303.00,444.00,-389.00,-83.00
75.00,91.00,-4338.00,414.00,-480.00,-93.00
95.00,88.00,-4398.00,269.00,-549.00,-98.00
25.00,118.00,-4454.00,302.00,-600.00,-101.00
51.00,122.00,-4540.00,294.00,-527.00,-76.00
82.00,177.00,-4682.00,331.00,-369.00,-24.00
94.00,149.00,-4702.00,266.00,-137.00,44.00
61.00,127.00,-4692.00,167.00,116.00,51.00
33.00,68.00,-4591.00,232.00,306.00,55.00
19.00,72.00,-4455.00,291.00,366.00,47.00
59.00,82.00,-4306.00,299.00,279.00,89.00
16.00,42.00,-4269.00,252.00,96.00,112.00
37.00,-32.00,-4294.00,301.00,-132.00,84.00
22.00,13.00,-4364.00,399.00,-419.00,-8.00
71.00,16.00,-4528.00,281.00,-566.00,-111.00
107.00,34.00,-4678.00,304.00,-501.00,-138.00
102.00,87.00,-4734.00,300.00,-273.00,-149.00
139.00,119.00,-4793.00,323.00,52.00,-90.00
112.00,124.00,-4718.00,358.00,291.00,-4.00
57.00,104.00,-4564.00,392.00,408.00,71.00
55.00,87.00,-4477.00,328.00,392.00,84.00
41.00,58.00,-4426.00,257.00,287.00,73.00
38.00,21.00,-4367.00,270.00,153.00,39.00
58.00,16.00,-4385.00,274.00,33.00,-13.00
107.00,24.00,-4409.00,288.00,-80.00,-12.00
134.00,34.00,-4469.00,368.00,-157.00,-3.00
126.00,91.00,-4557.00,275.00,-166.00,4.00
118.00,53.00,-4566.00,178.00,-82.00,12.00
100.00,33.00,-4511.00,243.00,38.00,21.00
97.00,44.00,-4499.00,245.00,83.00,37.00
93.00,54.00,-4447.00,294.00,51.00,67.00
0.00,52.00,-4460.00,245.00,-112.00,84.00
41.00,19.00,-4437.00,64.00,-184.00,34.00
73.00,8.00,-4500.00,96.00,-167.00,-26.00
116.00,3.00,-4531.00,115.00,-127.00,-56.00
110.00,28.00,-4529.00,124.00,-45.00,-82.00
79.00,30.00,-4497.00,161.00,31.00,-75.00
71.00,50.00,-4406.00,169.00,58.00,-42.00
116.00,61.00,-4413.00,187.00,0.00,26.00
83.00,33.00,-4401.00,250.00,-71.00,54.00
43.00,-18.00,-4464.00,332.00,-105.00,55.00
9.00,-2.00,-4506.00,302.00,-53.00,15.00
68.00,23.00,-4460.00,258.00,2.00,-39.00
4.00,65.00,-4408.00,143.00,68.00,-17.00
34.00,56.00,-4396.00,194.00,45.00,51.00
0.00,54.00,-4351.00,214.00,-69.00,117.00
37.00,64.00,-4417.00,172.00,-145.00,174.00
56.00,-1.00,-4468.00,198.00,-194.00,198.00
115.00,-32.00,-4520.00,215.00,-162.00,231.00
118.00,-70.00,-4536.00,346.00,-48.00,238.00
98.00,-96.00,-4504.00,547.00,106.00,197.00
134.00,-163.00,-4522.00,705.00,133.00,90.00
71.00,-54.00,-4564.00,669.00,7.00,-20.00
-7.00,-58.00,-4639.00,687.00,-75.00,-58.00
-45.00,-39.00,-4703.00,746.00,-75.00,-136.00
-64.00,55.00,-4821.00,757.00,-130.00,-171.00
-66.00,122.00,-4854.00,650.00,-151.00,-62.00
-87.00,108.00,-4891.00,683.00,-115.00,134.00
-36.00,104.00,-4973.00,744.00,-70.00,347.00
-128.00,125.00,-5096.00,476.00,8.00,519.00
-78.00,-33.00,-5158.00,493.00,179.00,513.00
105.00,-3.00,-5152.00,885.00,263.00,522.00
139.00,-128.00,-5163.00,590.00,282.00,420.00
81.00,-260.00,-5296.00,856.00,74.00,198.00
-21.00,-215.00,-5407.00,919.00,-143.00,-107.00
1.00,-193.00,-5600.00,620.00,-294.00,-415.00
-22.00,-99.00,-5721.00,538.00,-387.00,-535.00
