AccX,AccY,AccZ,GyroX,GyroY,GyroZ
253.00,145.00,-4424.00,38.00,3.00,-24.00
266.00,117.00,-4449.00,35.00,13.00,-31.00
294.00,146.00,-4438.00,43.00,12.00,-36.00
279.00,129.00,-4411.00,33.00,6.00,-24.00
254.00,143.00,-4451.00,42.00,6.00,-35.00
278.00,138.00,-4414.00,27.00,2.00,-32.00
262.00,136.00,-4447.00,43.00,1.00,-30.00
253.00,138.00,-4447.00,36.00,-2.00,-21.00
252.00,159.00,-4455.00,35.00,3.00,-30.00
242.00,143.00,-4449.00,40.00,11.00,-29.00
262.00,164.00,-4464.00,32.00,1.00,-28.00
278.00,150.00,-4452.00,33.00,4.00,-36.00
263.00,137.00,-4423.00,29.00,1.00,-29.00
225.00,155.00,-4428.00,30.00,6.00,-32.00
294.00,159.00,-4460.00,35.00,6.00,-17.00
271.00,151.00,-4435.00,45.00,9.00,-31.00
276.00,141.00,-4467.00,33.00,5.00,-38.00
253.00,140.00,-4449.00,41.00,8.00,-25.00
260.00,165.00,-4424.00,46.00,-6.00,-26.00
237.00,140.00,-4413.00,27.00,8.00,-24.00
273.00,144.00,-4439.00,41.00,-5.00,-32.00
245.00,143.00,-4398.00,45.00,3.00,-29.00
252.00,139.00,-4438.00,37.00,20.00,-34.00
227.00,154.00,-4436.00,30.00,10.00,-38.00
250.00,158.00,-4433.00,41.00,5.00,-22.00
265.00,149.00,-4433.00,41.00,11.00,-31.00
276.00,143.00,-4443.00,35.00,6.00,-27.00
244.00,139.00,-4460.00,48.00,10.00,-28.00
237.00,145.00,-4445.00,36.00,9.00,-20.00
257.00,169.00,-4440.00,34.00,5.00,-10.00
244.00,148.00,-4467.00,30.00,2.00,-27.00
262.00,130.00,-4414.00,42.00,2.00,-20.00
279.00,135.00,-4464.00,38.00,4.00,-33.00
265.00,161.00,-4414.00,38.00,-5.00,-40.00
281.00,151.00,-4430.00,30.00,5.00,-32.00
268.00,154.00,-4454.00,37.00,9.00,-32.00
258.00,140.00,-4423.00,31.00,12.00,-38.00
261.00,147.00,-4438.00,45.00,6.00,-21.00
259.00,143.00,-4459.00,45.00,3.00,-12.00
245.00,158.00,-4439.00,32.00,11.00,-38.00
273.00,136.00,-4422.00,28.00,13.00,-16.00
264.00,127.00,-4414.00,41.00,6.00,-32.00
254.00,144.00,-4447.00,34.00,6.00,-23.00
257.00,152.00,-4456.00,42.00,-1.00,-31.00
271.00,148.00,-4389.00,16.00,9.00,-23.00
251.00,140.00,-4425.00,29.00,9.00,-28.00
257.00,129.00,-4458.00,31.00,4.00,-24.00
229.00,146.00,-4458.00,41.00,-2.00,-37.00
244.00,145.00,-4448.00,39.00,5.00,-25.00
279.00,152.00,-4441.00,38.00,-1.00,-28.00
274.00,140.00,-4467.00,33.00,-1.00,-32.00
275.00,135.00,-4449.00,44.00,8.00,-29.00
271.00,120.00,-4461.00,38.00,9.00,-32.00
249.00,139.00,-4435.00,34.00,5.00,-24.00
246.00,144.00,-4439.00,26.00,9.00,-34.00
248.00,153.00,-4432.00,43.00,11.00,-25.00
264.00,135.00,-4420.00,42.00,-5.00,-34.00
253.00,148.00,-4456.00,40.00,-1.00,-30.00
262.00,148.00,-4440.00,34.00,6.00,-28.00
257.00,158.00,-4440.00,35.00,11.00,-21.00
245.00,139.00,-4461.00,45.00,-1.00,-34.00
261.00,135.00,-4433.00,33.00,8.00,-26.00
276.00,122.00,-4446.00,30.00,8.00,-33.00
244.00,146.00,-4470.00,42.00,5.00,-24.00
268.00,160.00,-4481.00,43.00,3.00,-27.00
263.00,143.00,-4443.00,34.00,9.00,-33.00
271.00,149.00,-4474.00,33.00,18.00,-34.00
246.00,152.00,-4457.00,32.00,2.00,-23.00
251.00,155.00,-4428.00,39.00,-8.00,-23.00
283.00,133.00,-4458.00,41.00,11.00,-29.00
249.00,136.00,-4440.00,40.00,9.00,-29.00
265.00,128.00,-4405.00,45.00,11.00,-20.00
271.00,131.00,-4420.00,48.00,3.00,-19.00
251.00,161.00,-4486.00,35.00,9.00,-26.00
262.00,140.00,-4408.00,39.00,17.00,-21.00
269.00,151.00,-4416.00,32.00,1.00,-27.00
255.00,129.00,-4459.00,34.00,8.00,-29.00
255.00,150.00,-4438.00,34.00,10.00,-29.00
261.00,133.00,-4469.00,27.00,5.00,-37.00
255.00,142.00,-4452.00,45.00,8.00,-25.00
255.00,158.00,-4456.00,29.00,13.00,-22.00
268.00,139.00,-4449.00,39.00,3.00,-25.00
254.00,157.00,-4446.00,47.00,2.00,-34.00
266.00,137.00,-4447.00,49.00,14.00,-31.00
241.00,152.00,-4430.00,19.00,6.00,-33.00
257.00,144.00,-4445.00,44.00,2.00,-30.00
284.00,137.00,-4438.00,42.00,-3.00,-30.00
234.00,156.00,-4436.00,41.00,16.00,-34.00
261.00,138.00,-4424.00,41.00,9.00,-31.00
264.00,146.00,-4429.00,39.00,7.00,-31.00
260.00,146.00,-4413.00,51.00,4.00,-35.00
238.00,150.00,-4436.00,46.00,7.00,-24.00
278.00,149.00,-4458.00,34.00,11.00,-26.00
268.00,154.00,-4422.00,32.00,6.00,-30.00
279.00,153.00,-4407.00,51.00,0.00,-29.00
258.00,152.00,-4474.00,35.00,4.00,-42.00
269.00,149.00,-4439.00,34.00,1.00,-35.00
258.00,142.00,-4424.00,52.00,6.00,-18.00
275.00,169.00,-4466.00,30.00,7.00,-35.00
269.00,151.00,-4438.00,35.00,2.00,-33.00
266.00,134.00,-4441.00,53.00,0.00,-30.00
267.00,139.00,-4428.00,45.00,9.00,-28.00
275.00,138.00,-4457.00,40.00,10.00,-33.00
261.00,154.00,-4460.00,34.00,1.00,-34.00
255.00,162.00,-4434.00,40.00,2.00,-26.00
240.00,158.00,-4450.00,40.00,16.00,-29.00
240.00,156.00,-4453.00,39.00,5.00,-40.00
266.00,143.00,-4400.00,37.00,1.00,-32.00
253.00,145.00,-4451.00,32.00,-12.00,-25.00
242.00,176.00,-4456.00,30.00,9.00,-18.00
271.00,168.00,-4464.00,42.00,12.00,-37.00
252.00,123.00,-4443.00,31.00,10.00,-34.00
256.00,145.00,-4385.00,30.00,2.00,-30.00
236.00,132.00,-4421.00,39.00,2.00,-37.00
242.00,147.00,-4416.00,52.00,9.00,-25.00
288.00,137.00,-4454.00,36.00,15.00,-19.00
259.00,136.00,-4435.00,27.00,4.00,-20.00
262.00,139.00,-4455.00,35.00,2.00,-24.00
259.00,145.00,-4409.00,35.00,13.00,-41.00
252.00,151.00,-4447.00,39.00,0.00,-36.00
246.00,161.00,-4440.00,37.00,1.00,-25.00
277.00,134.00,-4436.00,45.00,11.00,-41.00
248.00,158.00,-4448.00,37.00,-1.00,-34.00
271.00,123.00,-4425.00,41.00,-1.00,-33.00
254.00,166.00,-4437.00,35.00,-2.00,-32.00
264.00,125.00,-4423.00,31.00,12.00,-28.00
247.00,143.00,-4410.00,40.00,2.00,-29.00
267.00,128.00,-4446.00,47.00,-2.00,-18.00
267.00,150.00,-4439.00,31.00,7.00,-28.00
267.00,151.00,-4438.00,39.00,9.00,-33.00
235.00,135.00,-4416.00,43.00,10.00,-32.00
249.00,127.00,-4436.00,47.00,19.00,-38.00
260.00,131.00,-4474.00,22.00,7.00,-29.00
255.00,124.00,-4455.00,40.00,6.00,-31.00
276.00,155.00,-4447.00,37.00,-4.00,-24.00
257.00,141.00,-4456.00,40.00,-4.00,-24.00
255.00,139.00,-4439.00,57.00,5.00,-30.00
260.00,119.00,-4460.00,29.00,2.00,-31.00
246.00,146.00,-4427.00,29.00,12.00,-29.00
281.00,144.00,-4434.00,33.00,-6.00,-39.00
262.00,156.00,-4417.00,27.00,-4.00,-27.00
255.00,161.00,-4411.00,27.00,20.00,-25.00
264.00,145.00,-4436.00,31.00,7.00,-36.00
245.00,156.00,-4444.00,31.00,0.00,-27.00
265.00,144.00,-4452.00,44.00,0.00,-32.00
284.00,129.00,-4469.00,41.00,11.00,-32.00
254.00,168.00,-4484.00,33.00,3.00,-25.00
262.00,143.00,-4431.00,32.00,3.00,-30.00
244.00,146.00,-4440.00,39.00,6.00,-30.00
284.00,141.00,-4425.00,32.00,4.00,-29.00
272.00,156.00,-4452.00,38.00,15.00,-36.00
253.00,165.00,-4443.00,40.00,15.00,-36.00
277.00,169.00,-4447.00,30.00,10.00,-38.00
262.00,146.00,-4451.00,30.00,10.00,-35.00
245.00,152.00,-4439.00,19.00,5.00,-29.00
252.00,139.00,-4439.00,36.00,8.00,-34.00
267.00,137.00,-4456.00,27.00,4.00,-30.00
267.00,151.00,-4439.00,43.00,5.00,-29.00
235.00,158.00,-4440.00,37.00,16.00,-32.00
280.00,155.00,-4452.00,35.00,2.00,-35.00
260.00,151.00,-4402.00,33.00,11.00,-37.00
268.00,132.00,-4454.00,35.00,6.00,-35.00
246.00,127.00,-4449.00,28.00,15.00,-38.00
240.00,121.00,-4432.00,35.00,4.00,-33.00
248.00,147.00,-4445.00,36.00,1.00,-38.00
262.00,148.00,-4404.00,40.00,7.00,-29.00
237.00,151.00,-4426.00,35.00,0.00,-13.00
245.00,146.00,-4445.00,43.00,-1.00,-24.00
269.00,148.00,-4426.00,37.00,4.00,-36.00
242.00,146.00,-4447.00,49.00,-3.00,-28.00
267.00,139.00,-4437.00,39.00,-5.00,-35.00
281.00,155.00,-4484.00,39.00,4.00,-34.00
249.00,148.00,-4426.00,32.00,7.00,-31.00
255.00,136.00,-4440.00,35.00,11.00,-36.00
245.00,145.00,-4458.00,36.00,12.00,-30.00
255.00,149.00,-4449.00,34.00,7.00,-31.00
285.00,140.00,-4454.00,36.00,-3.00,-40.00
251.00,142.00,-4438.00,36.00,5.00,-30.00
272.00,125.00,-4446.00,40.00,-3.00,-20.00
278.00,171.00,-4474.00,43.00,6.00,-33.00
273.00,160.00,-4440.00,30.00,0.00,-26.00
264.00,156.00,-4449.00,25.00,8.00,-26.00
276.00,134.00,-4437.00,30.00,1.00,-37.00
264.00,141.00,-4457.00,37.00,3.00,-21.00
265.00,141.00,-4435.00,39.00,12.00,-23.00
247.00,145.00,-4444.00,32.00,11.00,-32.00
242.00,149.00,-4458.00,39.00,-1.00,-26.00
257.00,139.00,-4445.00,40.00,9.00,-24.00
269.00,150.00,-4432.00,38.00,8.00,-32.00
248.00,156.00,-4441.00,34.00,5.00,-25.00
233.00,153.00,-4456.00,32.00,0.00,-10.00
253.00,132.00,-4427.00,41.00,10.00,-12.00
236.00,146.00,-4442.00,36.00,11.00,-42.00
226.00,160.00,-4480.00,43.00,3.00,-22.00
263.00,137.00,-4461.00,42.00,2.00,-25.00
242.00,148.00,-4431.00,30.00,18.00,-31.00
271.00,140.00,-4445.00,40.00,9.00,-22.00
239.00,136.00,-4438.00,37.00,11.00,-18.00
258.00,147.00,-4415.00,39.00,3.00,-32.00
281.00,127.00,-4418.00,34.00,2.00,-33.00
258.00,138.00,-4451.00,35.00,14.00,-16.00
258.00,155.00,-4423.00,38.00,8.00,-16.00
277.00,151.00,-4460.00,35.00,7.00,-32.00
257.00,162.00,-4493.00,45.00,14.00,-30.00
228.00,137.00,-4453.00,45.00,2.00,-31.00
284.00,137.00,-4445.00,28.00,-2.00,-22.00
251.00,153.00,-4425.00,46.00,10.00,-33.00
243.00,153.00,-4430.00,27.00,4.00,-36.00
239.00,149.00,-4470.00,32.00,8.00,-39.00
248.00,138.00,-4414.00,43.00,5.00,-24.00
260.00,134.00,-4450.00,39.00,-1.00,-35.00
255.00,144.00,-4435.00,35.00,14.00,-34.00
281.00,153.00,-4444.00,31.00,8.00,-26.00
252.00,140.00,-4445.00,33.00,13.00,-41.00
246.00,143.00,-4433.00,46.00,3.00,-32.00
273.00,162.00,-4477.00,40.00,11.00,-30.00
261.00,122.00,-4459.00,38.00,6.00,-40.00
265.00,113.00,-4440.00,36.00,12.00,-31.00
259.00,129.00,-4418.00,28.00,8.00,-38.00
281.00,144.00,-4454.00,46.00,5.00,-24.00
265.00,128.00,-4445.00,41.00,14.00,-30.00
257.00,147.00,-4423.00,39.00,14.00,-27.00
250.00,160.00,-4475.00,42.00,10.00,-25.00
236.00,169.00,-4421.00,39.00,19.00,-30.00
255.00,162.00,-4436.00,36.00,18.00,-41.00
296.00,137.00,-4433.00,39.00,-1.00,-34.00
257.00,156.00,-4419.00,36.00,-10.00,-33.00
267.00,126.00,-4407.00,31.00,11.00,-29.00
269.00,143.00,-4435.00,29.00,8.00,-34.00
231.00,146.00,-4428.00,46.00,7.00,-27.00
264.00,126.00,-4436.00,34.00,1.00,-38.00
263.00,164.00,-4436.00,39.00,-3.00,-31.00
257.00,158.00,-4429.00,20.00,11.00,-25.00
259.00,153.00,-4444.00,43.00,4.00,-19.00
257.00,146.00,-4406.00,38.00,-3.00,-21.00
239.00,122.00,-4480.00,42.00,8.00,-28.00
263.00,135.00,-4423.00,29.00,1.00,-27.00
251.00,175.00,-4432.00,30.00,1.00,-28.00
256.00,153.00,-4423.00,28.00,5.00,-30.00
248.00,159.00,-4489.00,31.00,1.00,-31.00
263.00,173.00,-4438.00,47.00,5.00,-32.00
244.00,147.00,-4442.00,34.00,2.00,-23.00
228.00,141.00,-4446.00,53.00,0.00,-21.00
263.00,133.00,-4440.00,54.00,10.00,-33.00
274.00,129.00,-4453.00,34.00,-1.00,-34.00
229.00,145.00,-4449.00,36.00,7.00,-41.00
272.00,143.00,-4437.00,42.00,10.00,-25.00
249.00,153.00,-4434.00,38.00,6.00,-29.00
252.00,157.00,-4417.00,42.00,7.00,-29.00
247.00,156.00,-4449.00,29.00,8.00,-23.00
255.00,151.00,-4426.00,40.00,6.00,-16.00
259.00,163.00,-4456.00,30.00,9.00,-23.00
268.00,151.00,-4434.00,33.00,0.00,-25.00
266.00,144.00,-4420.00,38.00,1.00,-20.00
256.00,153.00,-4417.00,36.00,0.00,-39.00
300.00,151.00,-4421.00,32.00,12.00,-38.00
260.00,154.00,-4429.00,35.00,5.00,-32.00
256.00,152.00,-4452.00,41.00,5.00,-46.00
260.00,151.00,-4458.00,46.00,10.00,-32.00
248.00,147.00,-4440.00,31.00,10.00,-38.00
261.00,159.00,-4456.00,38.00,8.00,-31.00
269.00,142.00,-4439.00,32.00,7.00,-32.00
280.00,136.00,-4423.00,54.00,4.00,-26.00
252.00,136.00,-4432.00,40.00,12.00,-37.00
272.00,167.00,-4443.00,36.00,-4.00,-42.00
272.00,159.00,-4426.00,27.00,6.00,-24.00
266.00,154.00,-4431.00,50.00,13.00,-28.00
254.00,151.00,-4440.00,36.00,1.00,-42.00
249.00,155.00,-4432.00,42.00,5.00,-30.00
245.00,150.00,-4444.00,44.00,1.00,-26.00
262.00,151.00,-4444.00,35.00,-4.00,-35.00
256.00,141.00,-4449.00,29.00,1.00,-23.00
262.00,149.00,-4438.00,39.00,11.00,-17.00
281.00,163.00,-4462.00,44.00,7.00,-22.00
249.00,164.00,-4420.00,36.00,5.00,-29.00
229.00,160.00,-4456.00,32.00,17.00,-32.00
241.00,124.00,-4422.00,32.00,0.00,-21.00
242.00,156.00,-4434.00,35.00,1.00,-19.00
274.00,141.00,-4459.00,35.00,-2.00,-35.00
240.00,144.00,-4420.00,42.00,-1.00,-25.00
264.00,134.00,-4445.00,38.00,12.00,-32.00
269.00,121.00,-4447.00,44.00,-3.00,-33.00
243.00,140.00,-4447.00,35.00,6.00,-22.00
255.00,158.00,-4480.00,34.00,18.00,-22.00
267.00,159.00,-4442.00,32.00,7.00,-29.00
270.00,152.00,-4423.00,31.00,9.00,-21.00
250.00,166.00,-4438.00,31.00,2.00,-35.00
266.00,133.00,-4465.00,42.00,-2.00,-29.00
249.00,142.00,-4416.00,48.00,2.00,-34.00
252.00,153.00,-4444.00,33.00,4.00,-32.00
258.00,143.00,-4444.00,42.00,0.00,-29.00
256.00,138.00,-4409.00,26.00,11.00,-25.00
239.00,138.00,-4424.00,47.00,7.00,-38.00
237.00,143.00,-4467.00,38.00,12.00,-33.00
254.00,138.00,-4435.00,31.00,-6.00,-31.00
268.00,144.00,-4459.00,43.00,9.00,-42.00
270.00,154.00,-4427.00,38.00,8.00,-34.00
248.00,137.00,-4448.00,30.00,16.00,-36.00
279.00,142.00,-4444.00,32.00,16.00,-34.00
272.00,144.00,-4390.00,43.00,4.00,-21.00
268.00,153.00,-4444.00,40.00,13.00,-32.00
234.00,142.00,-4458.00,39.00,8.00,-30.00
262.00,150.00,-4429.00,29.00,1.00,-19.00
267.00,138.00,-4445.00,44.00,5.00,-28.00
263.00,126.00,-4463.00,29.00,2.00,-22.00
260.00,151.00,-4449.00,35.00,-2.00,-38.00
268.00,173.00,-4442.00,31.00,9.00,-43.00
250.00,143.00,-4412.00,41.00,8.00,-29.00
246.00,148.00,-4446.00,38.00,11.00,-32.00
250.00,158.00,-4420.00,41.00,-2.00,-30.00
244.00,152.00,-4416.00,39.00,-1.00,-23.00
261.00,142.00,-4447.00,41.00,16.00,-36.00
262.00,142.00,-4440.00,28.00,-8.00,-28.00
245.00,164.00,-4476.00,38.00,9.00,-26.00
243.00,157.00,-4420.00,29.00,3.00,-26.00
281.00,137.00,-4452.00,35.00,6.00,-31.00
269.00,138.00,-4462.00,48.00,2.00,-24.00
274.00,155.00,-4425.00,29.00,8.00,-30.00
273.00,122.00,-4435.00,34.00,9.00,-35.00
271.00,116.00,-4440.00,36.00,2.00,-31.00
235.00,151.00,-4432.00,32.00,0.00,-39.00
271.00,136.00,-4458.00,41.00,0.00,-31.00
234.00,138.00,-4434.00,25.00,-4.00,-27.00
230.00,132.00,-4449.00,44.00,7.00,-29.00
271.00,122.00,-4421.00,38.00,9.00,-30.00
261.00,140.00,-4476.00,30.00,4.00,-29.00
290.00,160.00,-4434.00,47.00,0.00,-29.00
268.00,158.00,-4427.00,37.00,4.00,-33.00
272.00,155.00,-4438.00,29.00,9.00,-29.00
269.00,146.00,-4463.00,54.00,14.00,-35.00
260.00,131.00,-4410.00,42.00,7.00,-33.00
268.00,156.00,-4461.00,39.00,9.00,-21.00
276.00,144.00,-4437.00,45.00,11.00,-30.00
250.00,148.00,-4455.00,40.00,12.00,-37.00
269.00,150.00,-4419.00,38.00,5.00,-22.00
263.00,150.00,-4443.00,40.00,9.00,-25.00
259.00,139.00,-4384.00,30.00,12.00,-22.00
273.00,146.00,-4432.00,28.00,3.00,-35.00
276.00,131.00,-4410.00,44.00,10.00,-27.00
250.00,168.00,-4421.00,46.00,12.00,-18.00
275.00,153.00,-4437.00,27.00,4.00,-26.00
265.00,145.00,-4433.00,39.00,12.00,-30.00
254.00,136.00,-4444.00,39.00,0.00,-30.00
246.00,129.00,-4390.00,32.00,0.00,-34.00
279.00,144.00,-4469.00,30.00,19.00,-27.00
285.00,153.00,-4460.00,29.00,-1.00,-22.00
284.00,137.00,-4465.00,34.00,1.00,-36.00
272.00,163.00,-4448.00,47.00,13.00,-21.00
258.00,149.00,-4458.00,35.00,9.00,-33.00
243.00,137.00,-4468.00,40.00,2.00,-22.00
246.00,142.00,-4462.00,36.00,5.00,-36.00
242.00,125.00,-4472.00,35.00,3.00,-26.00
257.00,156.00,-4443.00,25.00,6.00,-34.00
240.00,149.00,-4439.00,31.00,13.00,-33.00
263.00,138.00,-4420.00,40.00,4.00,-32.00
269.00,168.00,-4449.00,36.00,8.00,-38.00
269.00,126.00,-4474.00,47.00,12.00,-29.00
255.00,134.00,-4445.00,37.00,11.00,-34.00
250.00,146.00,-4460.00,48.00,10.00,-37.00
260.00,178.00,-4438.00,43.00,-1.00,-35.00
257.00,148.00,-4417.00,31.00,2.00,-38.00
273.00,125.00,-4436.00,44.00,-2.00,-32.00
259.00,148.00,-4449.00,44.00,3.00,-40.00
275.00,143.00,-4475.00,29.00,7.00,-34.00
262.00,130.00,-4427.00,40.00,8.00,-27.00
261.00,111.00,-4439.00,45.00,7.00,-30.00
270.00,135.00,-4454.00,27.00,17.00,-21.00
236.00,138.00,-4452.00,41.00,7.00,-24.00
251.00,150.00,-4454.00,39.00,2.00,-30.00
275.00,142.00,-4426.00,37.00,7.00,-36.00
225.00,141.00,-4459.00,44.00,4.00,-31.00
263.00,146.00,-4416.00,39.00,-3.00,-36.00
270.00,136.00,-4430.00,41.00,11.00,-33.00
271.00,135.00,-4436.00,44.00,1.00,-20.00
263.00,173.00,-4432.00,32.00,-6.00,-30.00
258.00,170.00,-4448.00,52.00,-2.00,-28.00
251.00,144.00,-4439.00,36.00,4.00,-29.00
264.00,163.00,-4414.00,32.00,-6.00,-26.00
259.00,159.00,-4465.00,39.00,10.00,-25.00
284.00,149.00,-4429.00,30.00,8.00,-35.00
273.00,166.00,-4456.00,34.00,-1.00,-33.00
278.00,142.00,-4467.00,33.00,3.00,-27.00
246.00,135.00,-4404.00,33.00,2.00,-31.00
251.00,149.00,-4467.00,30.00,9.00,-28.00
256.00,132.00,-4406.00,33.00,1.00,-40.00
264.00,164.00,-4450.00,45.00,1.00,-34.00
262.00,155.00,-4448.00,40.00,9.00,-35.00
260.00,117.00,-4417.00,47.00,3.00,-29.00
272.00,145.00,-4417.00,45.00,3.00,-30.00
270.00,173.00,-4473.00,38.00,-9.00,-29.00
259.00,141.00,-4454.00,44.00,14.00,-34.00
270.00,168.00,-4471.00,45.00,2.00,-33.00
255.00,134.00,-4427.00,41.00,9.00,-34.00
250.00,146.00,-4420.00,37.00,5.00,-27.00
267.00,148.00,-4408.00,33.00,11.00,-24.00
272.00,152.00,-4460.00,36.00,7.00,-33.00
253.00,173.00,-4421.00,40.00,8.00,-32.00
264.00,143.00,-4452.00,38.00,9.00,-29.00
257.00,148.00,-4460.00,34.00,7.00,-29.00
261.00,147.00,-4442.00,47.00,8.00,-35.00
259.00,152.00,-4451.00,39.00,8.00,-42.00
245.00,165.00,-4434.00,40.00,5.00,-28.00
290.00,147.00,-4458.00,32.00,0.00,-40.00
276.00,147.00,-4445.00,38.00,0.00,-20.00
266.00,139.00,-4409.00,41.00,-1.00,-15.00
280.00,154.00,-4406.00,39.00,-6.00,-25.00
264.00,140.00,-4470.00,50.00,3.00,-20.00
250.00,123.00,-4438.00,40.00,10.00,-29.00
257.00,136.00,-4473.00,24.00,14.00,-34.00
258.00,171.00,-4458.00,37.00,1.00,-27.00
248.00,146.00,-4437.00,40.00,6.00,-21.00
257.00,131.00,-4450.00,33.00,-1.00,-33.00
284.00,132.00,-4408.00,39.00,-1.00,-27.00
267.00,148.00,-4423.00,40.00,1.00,-22.00
268.00,154.00,-4436.00,46.00,5.00,-36.00
241.00,149.00,-4429.00,46.00,6.00,-32.00
256.00,151.00,-4428.00,33.00,5.00,-28.00
255.00,166.00,-4422.00,32.00,3.00,-34.00
251.00,143.00,-4450.00,37.00,8.00,-25.00
254.00,147.00,-4427.00,34.00,2.00,-24.00
262.00,158.00,-4467.00,29.00,7.00,-32.00
262.00,149.00,-4421.00,44.00,7.00,-25.00
245.00,147.00,-4484.00,33.00,2.00,-27.00
266.00,138.00,-4460.00,53.00,6.00,-23.00
268.00,135.00,-4433.00,47.00,3.00,-31.00
263.00,128.00,-4413.00,31.00,9.00,-36.00
241.00,151.00,-4469.00,37.00,2.00,-31.00
257.00,147.00,-4426.00,45.00,4.00,-34.00
264.00,129.00,-4460.00,24.00,4.00,-27.00
242.00,153.00,-4440.00,47.00,7.00,-25.00
248.00,150.00,-4436.00,34.00,10.00,-34.00
249.00,144.00,-4464.00,43.00,6.00,-28.00
232.00,137.00,-4447.00,41.00,21.00,-26.00
268.00,139.00,-4455.00,25.00,1.00,-25.00
257.00,138.00,-4435.00,40.00,9.00,-36.00
292.00,142.00,-4436.00,43.00,-4.00,-23.00
284.00,150.00,-4466.00,53.00,9.00,-36.00
262.00,162.00,-4445.00,36.00,1.00,-24.00
259.00,130.00,-4413.00,31.00,-2.00,-31.00
252.00,146.00,-4430.00,37.00,3.00,-13.00
264.00,162.00,-4398.00,21.00,7.00,-23.00
266.00,131.00,-4472.00,36.00,3.00,-25.00
253.00,141.00,-4433.00,35.00,6.00,-32.00
262.00,156.00,-4432.00,44.00,1.00,-40.00
252.00,142.00,-4438.00,36.00,3.00,-29.00
260.00,138.00,-4440.00,27.00,12.00,-14.00
264.00,136.00,-4453.00,27.00,-3.00,-28.00
265.00,143.00,-4416.00,35.00,-1.00,-35.00
247.00,159.00,-4447.00,41.00,6.00,-40.00
264.00,140.00,-4425.00,39.00,13.00,-42.00
247.00,136.00,-4454.00,37.00,1.00,-23.00
284.00,148.00,-4431.00,51.00,9.00,-41.00
289.00,171.00,-4443.00,47.00,4.00,-29.00
233.00,142.00,-4484.00,42.00,4.00,-32.00
256.00,119.00,-4434.00,41.00,6.00,-37.00
258.00,133.00,-4452.00,34.00,9.00,-32.00
250.00,153.00,-4432.00,43.00,0.00,-27.00
275.00,144.00,-4422.00,46.00,3.00,-31.00
279.00,147.00,-4423.00,53.00,-4.00,-35.00
275.00,156.00,-4451.00,28.00,14.00,-25.00
277.00,143.00,-4460.00,34.00,4.00,-25.00
242.00,139.00,-4418.00,38.00,15.00,-31.00
244.00,171.00,-4406.00,35.00,0.00,-29.00
265.00,148.00,-4460.00,46.00,7.00,-22.00
262.00,139.00,-4443.00,40.00,2.00,-38.00
271.00,157.00,-4458.00,33.00,-2.00,-21.00
269.00,136.00,-4458.00,30.00,12.00,-32.00
280.00,142.00,-4446.00,34.00,1.00,-16.00
282.00,137.00,-4477.00,25.00,3.00,-35.00
260.00,155.00,-4478.00,41.00,0.00,-34.00
281.00,154.00,-4467.00,44.00,3.00,-27.00
245.00,157.00,-4449.00,35.00,-3.00,-29.00
258.00,143.00,-4464.00,44.00,9.00,-16.00
250.00,120.00,-4461.00,33.00,11.00,-22.00
279.00,158.00,-4436.00,49.00,1.00,-25.00
273.00,138.00,-4443.00,33.00,12.00,-26.00
292.00,156.00,-4424.00,31.00,11.00,-27.00
268.00,131.00,-4452.00,39.00,16.00,-28.00
248.00,138.00,-4475.00,42.00,4.00,-30.00
229.00,136.00,-4453.00,27.00,7.00,-35.00
277.00,133.00,-4430.00,36.00,5.00,-29.00
286.00,139.00,-4470.00,35.00,-7.00,-30.00
277.00,152.00,-4443.00,39.00,8.00,-22.00
274.00,145.00,-4459.00,51.00,6.00,-31.00
242.00,137.00,-4419.00,36.00,-5.00,-31.00
272.00,132.00,-4441.00,44.00,-5.00,-24.00
265.00,139.00,-4442.00,32.00,11.00,-26.00
272.00,134.00,-4467.00,38.00,-2.00,-18.00
277.00,158.00,-4438.00,33.00,-2.00,-25.00
269.00,153.00,-4457.00,33.00,6.00,-27.00
235.00,153.00,-4437.00,33.00,11.00,-25.00
265.00,157.00,-4450.00,41.00,13.00,-18.00
275.00,154.00,-4380.00,44.00,8.00,-36.00
274.00,181.00,-4436.00,39.00,2.00,-32.00
271.00,146.00,-4441.00,51.00,4.00,-25.00
243.00,150.00,-4484.00,34.00,9.00,-28.00
279.00,153.00,-4414.00,46.00,1.00,-37.00
235.00,134.00,-4470.00,42.00,6.00,-24.00
268.00,150.00,-4442.00,32.00,1.00,-25.00
252.00,142.00,-4411.00,37.00,10.00,-24.00
265.00,150.00,-4436.00,34.00,5.00,-27.00
255.00,146.00,-4438.00,40.00,8.00,-26.00
241.00,132.00,-4453.00,33.00,-4.00,-38.00
266.00,145.00,-4447.00,32.00,9.00,-28.00
254.00,136.00,-4410.00,37.00,6.00,-38.00
280.00,153.00,-4448.00,44.00,5.00,-26.00
246.00,137.00,-4430.00,37.00,9.00,-21.00
259.00,142.00,-4431.00,31.00,3.00,-25.00
257.00,144.00,-4453.00,36.00,4.00,-32.00
262.00,145.00,-4442.00,30.00,13.00,-21.00
235.00,156.00,-4471.00,31.00,2.00,-19.00
266.00,163.00,-4438.00,34.00,4.00,-44.00
288.00,138.00,-4454.00,37.00,18.00,-34.00
260.00,124.00,-4458.00,31.00,3.00,-37.00
255.00,147.00,-4455.00,48.00,15.00,-37.00
276.00,150.00,-4426.00,33.00,1.00,-38.00
259.00,147.00,-4473.00,37.00,5.00,-30.00
260.00,149.00,-4467.00,38.00,18.00,-30.00
262.00,140.00,-4414.00,40.00,17.00,-23.00
276.00,153.00,-4474.00,25.00,18.00,-28.00
235.00,162.00,-4444.00,47.00,-3.00,-31.00
269.00,148.00,-4452.00,32.00,6.00,-17.00
257.00,134.00,-4446.00,40.00,-3.00,-31.00
258.00,159.00,-4426.00,48.00,-2.00,-38.00
240.00,157.00,-4443.00,36.00,4.00,-29.00
268.00,142.00,-4429.00,36.00,18.00,-21.00
254.00,149.00,-4435.00,41.00,10.00,-42.00
252.00,139.00,-4432.00,31.00,1.00,-26.00
266.00,124.00,-4409.00,43.00,1.00,-30.00
262.00,128.00,-4456.00,27.00,1.00,-37.00
264.00,127.00,-4435.00,38.00,3.00,-29.00
267.00,163.00,-4438.00,27.00,4.00,-30.00
250.00,143.00,-4440.00,39.00,-2.00,-45.00
263.00,147.00,-4487.00,36.00,10.00,-37.00
245.00,142.00,-4444.00,47.00,7.00,-30.00
271.00,136.00,-4419.00,38.00,6.00,-22.00
248.00,133.00,-4455.00,38.00,10.00,-21.00
279.00,138.00,-4387.00,35.00,12.00,-32.00
265.00,159.00,-4442.00,43.00,8.00,-28.00
282.00,163.00,-4442.00,34.00,2.00,-30.00
233.00,143.00,-4440.00,44.00,11.00,-22.00
243.00,173.00,-4436.00,32.00,2.00,-28.00
259.00,131.00,-4421.00,36.00,-4.00,-32.00
272.00,148.00,-4425.00,32.00,12.00,-28.00
289.00,164.00,-4436.00,32.00,7.00,-22.00
270.00,154.00,-4424.00,37.00,0.00,-33.00
261.00,154.00,-4491.00,32.00,5.00,-21.00
267.00,148.00,-4442.00,46.00,2.00,-40.00
268.00,132.00,-4418.00,43.00,-1.00,-33.00
288.00,130.00,-4454.00,38.00,11.00,-33.00
269.00,133.00,-4429.00,43.00,8.00,-28.00
263.00,140.00,-4412.00,43.00,4.00,-20.00
255.00,118.00,-4449.00,40.00,-4.00,-20.00
259.00,138.00,-4457.00,43.00,3.00,-28.00
267.00,146.00,-4454.00,31.00,6.00,-33.00
266.00,142.00,-4430.00,39.00,3.00,-42.00
286.00,163.00,-4471.00,39.00,5.00,-25.00
246.00,144.00,-4437.00,38.00,6.00,-26.00
260.00,138.00,-4438.00,24.00,6.00,-27.00
281.00,138.00,-4480.00,45.00,0.00,-33.00
257.00,144.00,-4473.00,33.00,-3.00,-27.00
254.00,144.00,-4427.00,41.00,8.00,-31.00
254.00,131.00,-4441.00,35.00,9.00,-38.00
255.00,138.00,-4435.00,34.00,5.00,-20.00
283.00,150.00,-4415.00,41.00,5.00,-33.00
253.00,160.00,-4437.00,31.00,15.00,-32.00
273.00,142.00,-4437.00,37.00,10.00,-20.00
242.00,172.00,-4433.00,32.00,8.00,-20.00
259.00,150.00,-4434.00,39.00,15.00,-45.00
278.00,139.00,-4441.00,28.00,5.00,-33.00
285.00,138.00,-4445.00,37.00,-9.00,-26.00
246.00,156.00,-4436.00,39.00,1.00,-34.00
266.00,151.00,-4454.00,37.00,4.00,-29.00
293.00,142.00,-4469.00,36.00,2.00,-30.00
242.00,133.00,-4432.00,38.00,11.00,-19.00
276.00,124.00,-4436.00,39.00,-4.00,-23.00
262.00,153.00,-4462.00,36.00,-1.00,-28.00
264.00,143.00,-4447.00,35.00,8.00,-38.00
242.00,139.00,-4445.00,40.00,4.00,-41.00
272.00,133.00,-4448.00,22.00,6.00,-28.00
275.00,164.00,-4438.00,29.00,5.00,-33.00
280.00,121.00,-4447.00,30.00,2.00,-31.00
251.00,143.00,-4430.00,29.00,7.00,-30.00
274.00,150.00,-4449.00,36.00,7.00,-23.00
274.00,151.00,-4409.00,44.00,12.00,-24.00
285.00,144.00,-4426.00,37.00,3.00,-24.00
271.00,134.00,-4417.00,43.00,9.00,-27.00
279.00,161.00,-4456.00,32.00,-4.00,-16.00
273.00,143.00,-4410.00,41.00,7.00,-36.00
273.00,147.00,-4460.00,28.00,9.00,-34.00
267.00,160.00,-4412.00,28.00,4.00,-26.00
247.00,163.00,-4429.00,36.00,3.00,-32.00
281.00,139.00,-4446.00,34.00,14.00,-26.00
230.00,150.00,-4444.00,48.00,6.00,-21.00
285.00,138.00,-4413.00,37.00,-4.00,-37.00
270.00,157.00,-4440.00,32.00,2.00,-33.00
271.00,142.00,-4449.00,22.00,1.00,-27.00
266.00,127.00,-4464.00,46.00,1.00,-34.00
234.00,152.00,-4436.00,36.00,0.00,-27.00
246.00,157.00,-4425.00,40.00,8.00,-31.00
270.00,144.00,-4458.00,32.00,1.00,-29.00
252.00,148.00,-4469.00,38.00,11.00,-33.00
251.00,153.00,-4429.00,45.00,-4.00,-30.00
269.00,142.00,-4403.00,32.00,4.00,-25.00
245.00,147.00,-4423.00,40.00,5.00,-36.00
257.00,146.00,-4455.00,32.00,2.00,-30.00
257.00,140.00,-4407.00,34.00,11.00,-28.00
256.00,149.00,-4445.00,32.00,4.00,-38.00
255.00,155.00,-4459.00,34.00,7.00,-36.00
260.00,152.00,-4418.00,32.00,0.00,-36.00
261.00,130.00,-4438.00,42.00,11.00,-32.00
247.00,145.00,-4394.00,35.00,-2.00,-30.00
275.00,135.00,-4447.00,44.00,15.00,-29.00
262.00,170.00,-4446.00,29.00,1.00,-28.00
267.00,163.00,-4421.00,40.00,4.00,-37.00
255.00,144.00,-4448.00,43.00,13.00,-40.00
257.00,137.00,-4434.00,38.00,4.00,-24.00
274.00,131.00,-4460.00,32.00,7.00,-47.00
260.00,138.00,-4433.00,33.00,1.00,-29.00
259.00,116.00,-4475.00,38.00,13.00,-37.00
254.00,162.00,-4446.00,32.00,6.00,-30.00
238.00,164.00,-4430.00,45.00,7.00,-25.00
280.00,128.00,-4464.00,36.00,5.00,-33.00
283.00,150.00,-4432.00,38.00,4.00,-28.00
271.00,142.00,-4431.00,37.00,-4.00,-40.00
277.00,136.00,-4469.00,36.00,5.00,-36.00
260.00,145.00,-4404.00,39.00,3.00,-30.00
250.00,145.00,-4404.00,44.00,5.00,-28.00
255.00,121.00,-4432.00,46.00,9.00,-21.00
263.00,140.00,-4454.00,33.00,4.00,-26.00
254.00,133.00,-4438.00,32.00,8.00,-30.00
252.00,153.00,-4422.00,37.00,-3.00,-26.00
265.00,117.00,-4439.00,38.00,-2.00,-33.00
266.00,152.00,-4417.00,35.00,5.00,-43.00
239.00,147.00,-4456.00,29.00,12.00,-31.00
255.00,149.00,-4448.00,38.00,10.00,-25.00
279.00,151.00,-4430.00,47.00,18.00,-25.00
247.00,160.00,-4466.00,31.00,7.00,-23.00
234.00,163.00,-4421.00,22.00,13.00,-29.00
265.00,154.00,-4469.00,38.00,8.00,-29.00
266.00,147.00,-4460.00,44.00,2.00,-31.00
264.00,144.00,-4454.00,39.00,12.00,-29.00
252.00,143.00,-4453.00,31.00,-1.00,-31.00
284.00,131.00,-4438.00,27.00,2.00,-29.00
263.00,131.00,-4446.00,45.00,6.00,-23.00
260.00,160.00,-4492.00,36.00,0.00,-31.00
279.00,127.00,-4431.00,39.00,6.00,-27.00
250.00,170.00,-4460.00,45.00,1.00,-26.00
287.00,157.00,-4452.00,41.00,8.00,-19.00
275.00,148.00,-4405.00,37.00,-1.00,-24.00
259.00,147.00,-4460.00,43.00,5.00,-35.00
278.00,119.00,-4434.00,33.00,11.00,-33.00
261.00,144.00,-4380.00,43.00,-7.00,-15.00
279.00,130.00,-4445.00,32.00,-1.00,-36.00
292.00,131.00,-4432.00,44.00,8.00,-35.00
254.00,158.00,-4419.00,33.00,-2.00,-22.00
233.00,158.00,-4388.00,36.00,7.00,-36.00
278.00,147.00,-4429.00,38.00,-5.00,-31.00
238.00,147.00,-4421.00,34.00,1.00,-35.00
290.00,136.00,-4459.00,43.00,5.00,-31.00
253.00,153.00,-4432.00,44.00,5.00,-25.00
269.00,139.00,-4463.00,31.00,2.00,-30.00
271.00,144.00,-4458.00,38.00,-1.00,-32.00
247.00,136.00,-4456.00,45.00,12.00,-29.00
262.00,162.00,-4438.00,35.00,-4.00,-33.00
245.00,150.00,-4444.00,37.00,7.00,-30.00
259.00,152.00,-4468.00,32.00,3.00,-25.00
251.00,159.00,-4454.00,44.00,2.00,-43.00
246.00,139.00,-4463.00,35.00,7.00,-23.00
252.00,171.00,-4424.00,36.00,4.00,-40.00
253.00,164.00,-4436.00,32.00,10.00,-34.00
249.00,141.00,-4466.00,33.00,6.00,-31.00
271.00,144.00,-4434.00,33.00,1.00,-27.00
249.00,154.00,-4429.00,27.00,8.00,-31.00
252.00,166.00,-4452.00,39.00,0.00,-30.00
261.00,131.00,-4425.00,31.00,0.00,-30.00
250.00,140.00,-4464.00,31.00,2.00,-30.00
266.00,162.00,-4464.00,33.00,8.00,-30.00
266.00,166.00,-4411.00,32.00,11.00,-31.00
245.00,140.00,-4418.00,37.00,4.00,-23.00
277.00,151.00,-4456.00,38.00,-1.00,-24.00
261.00,152.00,-4462.00,42.00,3.00,-36.00
271.00,148.00,-4443.00,39.00,5.00,-29.00
259.00,165.00,-4467.00,38.00,8.00,-39.00
276.00,155.00,-4409.00,44.00,9.00,-32.00
262.00,141.00,-4444.00,34.00,-1.00,-32.00
247.00,150.00,-4449.00,38.00,8.00,-30.00
269.00,136.00,-4455.00,34.00,6.00,-34.00
276.00,120.00,-4421.00,31.00,6.00,-37.00
281.00,155.00,-4451.00,29.00,11.00,-36.00
263.00,156.00,-4451.00,41.00,14.00,-35.00
229.00,164.00,-4460.00,35.00,4.00,-26.00
265.00,141.00,-4427.00,25.00,11.00,-31.00
272.00,153.00,-4461.00,38.00,15.00,-32.00
279.00,130.00,-4473.00,38.00,-6.00,-37.00
276.00,139.00,-4414.00,42.00,2.00,-33.00
279.00,143.00,-4434.00,46.00,5.00,-23.00
274.00,111.00,-4445.00,32.00,-3.00,-29.00
264.00,135.00,-4449.00,27.00,7.00,-22.00
278.00,142.00,-4386.00,35.00,6.00,-29.00
262.00,138.00,-4449.00,44.00,0.00,-24.00
259.00,132.00,-4422.00,37.00,0.00,-23.00
274.00,127.00,-4415.00,36.00,6.00,-18.00
276.00,134.00,-4446.00,41.00,9.00,-19.00
264.00,126.00,-4430.00,36.00,6.00,-43.00
259.00,145.00,-4424.00,42.00,9.00,-35.00
271.00,135.00,-4471.00,48.00,3.00,-31.00
265.00,142.00,-4441.00,30.00,8.00,-28.00
251.00,139.00,-4450.00,26.00,2.00,-34.00
272.00,150.00,-4443.00,36.00,4.00,-31.00
277.00,150.00,-4443.00,36.00,13.00,-28.00
248.00,148.00,-4450.00,49.00,6.00,-10.00
265.00,149.00,-4449.00,35.00,2.00,-28.00
265.00,126.00,-4446.00,36.00,11.00,-33.00
241.00,133.00,-4436.00,32.00,9.00,-31.00
254.00,152.00,-4445.00,35.00,2.00,-44.00
287.00,135.00,-4440.00,34.00,18.00,-33.00
264.00,169.00,-4444.00,35.00,7.00,-34.00
269.00,129.00,-4443.00,36.00,4.00,-21.00
262.00,136.00,-4466.00,34.00,9.00,-30.00
250.00,135.00,-4466.00,34.00,-7.00,-29.00
263.00,153.00,-4434.00,22.00,10.00,-33.00
262.00,125.00,-4450.00,33.00,4.00,-27.00
265.00,138.00,-4465.00,29.00,-4.00,-35.00
276.00,126.00,-4434.00,39.00,7.00,-21.00
283.00,142.00,-4426.00,44.00,7.00,-30.00
264.00,152.00,-4456.00,37.00,-1.00,-27.00
271.00,140.00,-4419.00,30.00,12.00,-30.00
275.00,126.00,-4463.00,30.00,4.00,-23.00
251.00,134.00,-4495.00,48.00,-2.00,-28.00
275.00,137.00,-4438.00,31.00,0.00,-24.00
272.00,145.00,-4462.00,41.00,4.00,-30.00
274.00,137.00,-4445.00,41.00,7.00,-24.00
277.00,139.00,-4432.00,47.00,5.00,-34.00
262.00,140.00,-4418.00,45.00,2.00,-22.00
269.00,155.00,-4457.00,35.00,3.00,-44.00
265.00,128.00,-4455.00,32.00,4.00,-23.00
262.00,145.00,-4466.00,29.00,6.00,-30.00
245.00,172.00,-4441.00,42.00,10.00,-26.00
259.00,149.00,-4454.00,27.00,2.00,-29.00
262.00,148.00,-4455.00,43.00,5.00,-37.00
266.00,150.00,-4458.00,56.00,1.00,-33.00
274.00,152.00,-4437.00,33.00,1.00,-21.00
274.00,140.00,-4458.00,35.00,-3.00,-35.00
251.00,127.00,-4447.00,47.00,5.00,-25.00
269.00,143.00,-4450.00,27.00,8.00,-39.00
260.00,129.00,-4476.00,41.00,8.00,-42.00
248.00,143.00,-4449.00,35.00,12.00,-32.00
279.00,148.00,-4465.00,39.00,1.00,-32.00
257.00,146.00,-4434.00,52.00,5.00,-29.00
280.00,148.00,-4438.00,31.00,-1.00,-24.00
300.00,165.00,-4428.00,32.00,6.00,-31.00
267.00,122.00,-4429.00,38.00,-9.00,-41.00
288.00,146.00,-4427.00,32.00,5.00,-30.00
276.00,162.00,-4426.00,35.00,-4.00,-41.00
246.00,151.00,-4410.00,33.00,2.00,-23.00
279.00,153.00,-4424.00,41.00,8.00,-27.00
266.00,148.00,-4453.00,38.00,9.00,-44.00
291.00,138.00,-4413.00,44.00,4.00,-27.00
277.00,142.00,-4445.00,46.00,5.00,-34.00
286.00,151.00,-4456.00,34.00,3.00,-28.00
273.00,166.00,-4438.00,40.00,12.00,-40.00
260.00,137.00,-4427.00,38.00,11.00,-31.00
218.00,140.00,-4454.00,43.00,13.00,-24.00
271.00,151.00,-4433.00,37.00,14.00,-39.00
266.00,160.00,-4455.00,37.00,14.00,-29.00
267.00,157.00,-4418.00,42.00,3.00,-36.00
274.00,149.00,-4432.00,35.00,-6.00,-20.00
271.00,144.00,-4463.00,32.00,12.00,-23.00
225.00,148.00,-4443.00,45.00,9.00,-28.00
246.00,150.00,-4435.00,39.00,4.00,-30.00
256.00,165.00,-4444.00,43.00,9.00,-50.00
261.00,159.00,-4465.00,36.00,-1.00,-35.00
261.00,128.00,-4443.00,29.00,6.00,-26.00
273.00,127.00,-4425.00,37.00,4.00,-28.00
253.00,146.00,-4451.00,35.00,4.00,-18.00
288.00,129.00,-4488.00,28.00,13.00,-29.00
294.00,154.00,-4452.00,35.00,10.00,-23.00
247.00,159.00,-4438.00,33.00,7.00,-35.00
239.00,124.00,-4429.00,46.00,7.00,-27.00
254.00,166.00,-4436.00,41.00,5.00,-24.00
241.00,144.00,-4449.00,39.00,7.00,-28.00
253.00,135.00,-4425.00,28.00,7.00,-29.00
278.00,155.00,-4443.00,25.00,7.00,-31.00
255.00,129.00,-4458.00,33.00,-1.00,-27.00
265.00,131.00,-4430.00,34.00,16.00,-31.00
254.00,138.00,-4434.00,45.00,3.00,-25.00
256.00,155.00,-4464.00,42.00,9.00,-42.00
268.00,126.00,-4434.00,44.00,2.00,-25.00
246.00,143.00,-4470.00,25.00,6.00,-30.00
273.00,159.00,-4448.00,39.00,6.00,-26.00
259.00,127.00,-4458.00,37.00,-2.00,-22.00
257.00,153.00,-4451.00,39.00,15.00,-34.00
264.00,146.00,-4428.00,36.00,3.00,-24.00
269.00,135.00,-4431.00,42.00,9.00,-34.00
251.00,119.00,-4430.00,29.00,4.00,-29.00
267.00,156.00,-4425.00,35.00,2.00,-30.00
259.00,146.00,-4455.00,32.00,10.00,-29.00
235.00,168.00,-4412.00,28.00,7.00,-29.00
261.00,150.00,-4440.00,35.00,5.00,-42.00
268.00,129.00,-4432.00,36.00,2.00,-34.00
268.00,135.00,-4485.00,38.00,10.00,-25.00
264.00,119.00,-4432.00,48.00,3.00,-22.00
240.00,133.00,-4457.00,32.00,23.00,-39.00
230.00,167.00,-4422.00,44.00,-4.00,-31.00
240.00,147.00,-4448.00,37.00,-1.00,-20.00
252.00,132.00,-4455.00,47.00,2.00,-22.00
259.00,172.00,-4451.00,49.00,0.00,-31.00
243.00,140.00,-4432.00,31.00,0.00,-20.00
246.00,161.00,-4448.00,37.00,7.00,-40.00
250.00,129.00,-4437.00,32.00,-5.00,-24.00
289.00,142.00,-4443.00,43.00,0.00,-29.00
270.00,123.00,-4412.00,36.00,6.00,-31.00
266.00,142.00,-4422.00,38.00,7.00,-18.00
243.00,148.00,-4425.00,34.00,-9.00,-28.00
260.00,144.00,-4430.00,37.00,6.00,-15.00
251.00,136.00,-4419.00,37.00,10.00,-29.00
293.00,144.00,-4422.00,36.00,7.00,-31.00
283.00,138.00,-4467.00,35.00,7.00,-29.00
258.00,123.00,-4428.00,35.00,-6.00,-36.00
254.00,146.00,-4431.00,41.00,-2.00,-15.00
252.00,140.00,-4438.00,38.00,5.00,-35.00
259.00,149.00,-4435.00,39.00,8.00,-18.00
250.00,156.00,-4417.00,28.00,4.00,-34.00
233.00,125.00,-4461.00,41.00,0.00,-30.00
267.00,142.00,-4466.00,47.00,10.00,-27.00
274.00,138.00,-4397.00,38.00,10.00,-31.00
262.00,147.00,-4429.00,28.00,17.00,-26.00
275.00,163.00,-4452.00,51.00,13.00,-32.00
275.00,166.00,-4425.00,34.00,12.00,-26.00
238.00,143.00,-4427.00,34.00,4.00,-33.00
245.00,136.00,-4448.00,34.00,-3.00,-37.00
247.00,139.00,-4487.00,53.00,5.00,-30.00
263.00,136.00,-4449.00,32.00,-1.00,-22.00
250.00,139.00,-4429.00,26.00,7.00,-30.00
243.00,136.00,-4439.00,40.00,5.00,-23.00
266.00,157.00,-4429.00,42.00,2.00,-35.00
271.00,153.00,-4464.00,42.00,12.00,-31.00
229.00,138.00,-4474.00,39.00,2.00,-30.00
273.00,126.00,-4437.00,40.00,3.00,-36.00
242.00,145.00,-4444.00,35.00,-3.00,-32.00
261.00,129.00,-4432.00,43.00,-2.00,-34.00
271.00,155.00,-4444.00,50.00,0.00,-26.00
247.00,138.00,-4449.00,39.00,10.00,-25.00
267.00,148.00,-4443.00,36.00,21.00,-39.00
252.00,150.00,-4432.00,44.00,-5.00,-31.00
274.00,159.00,-4478.00,39.00,7.00,-39.00
261.00,132.00,-4482.00,42.00,10.00,-32.00
268.00,142.00,-4428.00,37.00,5.00,-25.00
281.00,114.00,-4427.00,39.00,5.00,-31.00
258.00,132.00,-4461.00,39.00,4.00,-26.00
286.00,145.00,-4433.00,40.00,0.00,-40.00
254.00,143.00,-4416.00,43.00,5.00,-28.00
260.00,139.00,-4443.00,39.00,6.00,-33.00
261.00,154.00,-4445.00,44.00,2.00,-19.00
261.00,144.00,-4453.00,35.00,1.00,-28.00
259.00,143.00,-4442.00,38.00,-2.00,-23.00
278.00,162.00,-4436.00,46.00,-2.00,-36.00
271.00,165.00,-4464.00,39.00,1.00,-28.00
268.00,137.00,-4469.00,41.00,5.00,-17.00
284.00,165.00,-4467.00,48.00,8.00,-31.00
259.00,150.00,-4430.00,34.00,9.00,-28.00
267.00,139.00,-4454.00,47.00,5.00,-18.00
260.00,132.00,-4431.00,33.00,5.00,-29.00
250.00,139.00,-4431.00,39.00,-9.00,-22.00
264.00,160.00,-4430.00,34.00,15.00,-32.00
242.00,146.00,-4448.00,44.00,8.00,-21.00
268.00,148.00,-4456.00,42.00,9.00,-34.00
248.00,138.00,-4430.00,38.00,5.00,-28.00
296.00,143.00,-4429.00,32.00,3.00,-25.00
262.00,126.00,-4430.00,45.00,16.00,-31.00
276.00,169.00,-4470.00,38.00,-2.00,-30.00
256.00,130.00,-4428.00,35.00,16.00,-28.00
247.00,157.00,-4441.00,43.00,8.00,-27.00
266.00,139.00,-4446.00,33.00,2.00,-27.00
249.00,118.00,-4412.00,34.00,5.00,-27.00
267.00,131.00,-4450.00,36.00,9.00,-32.00
264.00,145.00,-4436.00,33.00,6.00,-39.00
265.00,139.00,-4436.00,34.00,6.00,-26.00
250.00,156.00,-4439.00,46.00,-3.00,-24.00
269.00,124.00,-4447.00,51.00,11.00,-35.00
270.00,146.00,-4477.00,38.00,11.00,-28.00
255.00,147.00,-4417.00,33.00,16.00,-38.00
257.00,149.00,-4419.00,39.00,9.00,-40.00
270.00,139.00,-4437.00,25.00,10.00,-41.00
273.00,155.00,-4444.00,41.00,5.00,-34.00
274.00,147.00,-4467.00,45.00,9.00,-33.00
245.00,158.00,-4447.00,49.00,6.00,-29.00
258.00,146.00,-4472.00,41.00,11.00,-37.00
259.00,162.00,-4417.00,37.00,3.00,-23.00
252.00,132.00,-4410.00,28.00,1.00,-30.00
266.00,161.00,-4463.00,39.00,7.00,-36.00
265.00,148.00,-4454.00,41.00,6.00,-40.00
259.00,144.00,-4398.00,33.00,1.00,-29.00
273.00,161.00,-4446.00,35.00,-5.00,-39.00
267.00,148.00,-4405.00,33.00,9.00,-32.00
265.00,155.00,-4426.00,31.00,9.00,-33.00
263.00,132.00,-4445.00,42.00,15.00,-16.00
270.00,127.00,-4471.00,39.00,5.00,-26.00
259.00,153.00,-4449.00,39.00,9.00,-33.00
261.00,129.00,-4447.00,26.00,7.00,-34.00
272.00,144.00,-4431.00,44.00,6.00,-36.00
262.00,147.00,-4403.00,28.00,4.00,-38.00
240.00,131.00,-4437.00,24.00,3.00,-33.00
247.00,151.00,-4417.00,42.00,2.00,-32.00
263.00,135.00,-4479.00,37.00,4.00,-22.00
264.00,139.00,-4427.00,36.00,16.00,-29.00
247.00,137.00,-4445.00,46.00,-4.00,-30.00
279.00,134.00,-4423.00,43.00,7.00,-27.00
263.00,134.00,-4460.00,43.00,0.00,-31.00
270.00,130.00,-4439.00,36.00,-4.00,-27.00
255.00,152.00,-4461.00,37.00,10.00,-26.00
264.00,149.00,-4447.00,49.00,0.00,-37.00
272.00,154.00,-4467.00,42.00,9.00,-34.00
261.00,154.00,-4434.00,43.00,1.00,-27.00
261.00,143.00,-4434.00,32.00,7.00,-29.00
267.00,150.00,-4434.00,40.00,4.00,-21.00
276.00,144.00,-4436.00,36.00,8.00,-18.00
265.00,156.00,-4441.00,30.00,2.00,-33.00
255.00,143.00,-4456.00,43.00,-7.00,-29.00
258.00,147.00,-4451.00,50.00,5.00,-30.00
266.00,142.00,-4394.00,46.00,-2.00,-21.00
289.00,121.00,-4456.00,33.00,-6.00,-37.00
270.00,162.00,-4473.00,37.00,4.00,-25.00
253.00,146.00,-4474.00,52.00,12.00,-39.00
250.00,142.00,-4430.00,32.00,7.00,-31.00
268.00,148.00,-4461.00,32.00,14.00,-36.00
252.00,157.00,-4427.00,23.00,8.00,-33.00
249.00,152.00,-4430.00,38.00,10.00,-39.00
274.00,138.00,-4433.00,40.00,7.00,-33.00
267.00,173.00,-4469.00,33.00,3.00,-38.00
260.00,120.00,-4446.00,41.00,5.00,-29.00
260.00,157.00,-4458.00,38.00,1.00,-37.00
245.00,141.00,-4445.00,38.00,0.00,-38.00
226.00,127.00,-4445.00,38.00,8.00,-29.00
255.00,142.00,-4480.00,30.00,4.00,-36.00
257.00,152.00,-4437.00,29.00,3.00,-24.00
280.00,144.00,-4422.00,28.00,7.00,-27.00
260.00,133.00,-4463.00,44.00,9.00,-30.00
248.00,158.00,-4413.00,23.00,5.00,-30.00
248.00,155.00,-4437.00,37.00,8.00,-28.00
248.00,143.00,-4417.00,33.00,0.00,-26.00
261.00,157.00,-4425.00,32.00,2.00,-28.00
248.00,160.00,-4447.00,43.00,1.00,-22.00
241.00,141.00,-4446.00,40.00,6.00,-29.00
259.00,133.00,-4417.00,41.00,11.00,-33.00
273.00,164.00,-4445.00,30.00,4.00,-20.00
270.00,156.00,-4416.00,35.00,1.00,-19.00
277.00,162.00,-4461.00,28.00,6.00,-37.00
284.00,133.00,-4480.00,43.00,8.00,-24.00
254.00,139.00,-4428.00,34.00,3.00,-34.00
269.00,135.00,-4459.00,39.00,13.00,-24.00
247.00,135.00,-4445.00,38.00,10.00,-32.00
264.00,137.00,-4424.00,44.00,4.00,-48.00
255.00,121.00,-4436.00,39.00,-5.00,-40.00
263.00,144.00,-4450.00,30.00,-1.00,-28.00
274.00,142.00,-4427.00,40.00,10.00,-24.00
275.00,147.00,-4452.00,32.00,2.00,-30.00
270.00,135.00,-4451.00,37.00,-1.00,-31.00
255.00,128.00,-4458.00,47.00,3.00,-25.00
254.00,146.00,-4462.00,31.00,5.00,-20.00
275.00,122.00,-4456.00,45.00,5.00,-39.00
278.00,157.00,-4456.00,41.00,10.00,-40.00
291.00,141.00,-4421.00,43.00,3.00,-39.00
265.00,150.00,-4484.00,33.00,12.00,-44.00
282.00,147.00,-4450.00,32.00,-8.00,-35.00
254.00,149.00,-4435.00,40.00,8.00,-31.00
252.00,133.00,-4442.00,43.00,6.00,-33.00
230.00,147.00,-4432.00,31.00,12.00,-33.00
284.00,157.00,-4455.00,42.00,-3.00,-28.00
274.00,138.00,-4451.00,43.00,15.00,-28.00
273.00,148.00,-4438.00,33.00,2.00,-14.00
258.00,169.00,-4444.00,43.00,-5.00,-34.00
253.00,136.00,-4420.00,39.00,-4.00,-30.00
258.00,148.00,-4447.00,39.00,2.00,-29.00
269.00,144.00,-4449.00,39.00,8.00,-37.00
264.00,140.00,-4459.00,39.00,7.00,-37.00
266.00,155.00,-4457.00,36.00,4.00,-30.00
257.00,136.00,-4486.00,38.00,5.00,-29.00
272.00,133.00,-4462.00,32.00,9.00,-30.00
252.00,151.00,-4402.00,32.00,-7.00,-24.00
262.00,150.00,-4459.00,29.00,12.00,-30.00
260.00,144.00,-4434.00,28.00,8.00,-31.00
267.00,149.00,-4428.00,41.00,5.00,-33.00
263.00,149.00,-4452.00,40.00,3.00,-34.00
241.00,142.00,-4431.00,34.00,12.00,-31.00
259.00,148.00,-4449.00,38.00,7.00,-26.00
290.00,151.00,-4450.00,28.00,-4.00,-24.00
271.00,134.00,-4439.00,43.00,1.00,-27.00
292.00,146.00,-4421.00,36.00,8.00,-30.00
257.00,149.00,-4447.00,29.00,6.00,-27.00
244.00,148.00,-4456.00,40.00,8.00,-33.00
253.00,146.00,-4413.00,29.00,16.00,-27.00
267.00,125.00,-4442.00,37.00,4.00,-22.00
279.00,141.00,-4430.00,40.00,14.00,-19.00
281.00,157.00,-4426.00,29.00,9.00,-26.00
271.00,174.00,-4462.00,41.00,6.00,-37.00
253.00,143.00,-4430.00,45.00,7.00,-32.00
244.00,159.00,-4451.00,32.00,7.00,-42.00
275.00,138.00,-4453.00,46.00,3.00,-33.00
269.00,145.00,-4460.00,37.00,1.00,-38.00
249.00,151.00,-4464.00,35.00,8.00,-38.00
245.00,128.00,-4414.00,44.00,10.00,-39.00
259.00,140.00,-4436.00,39.00,7.00,-20.00
269.00,154.00,-4414.00,49.00,1.00,-29.00
285.00,159.00,-4455.00,35.00,-3.00,-33.00
273.00,145.00,-4441.00,28.00,9.00,-45.00
274.00,142.00,-4430.00,36.00,9.00,-20.00
258.00,150.00,-4430.00,32.00,8.00,-26.00
258.00,139.00,-4450.00,49.00,20.00,-26.00
288.00,149.00,-4433.00,36.00,8.00,-15.00
280.00,143.00,-4441.00,36.00,8.00,-32.00
293.00,131.00,-4492.00,25.00,-7.00,-27.00
253.00,144.00,-4462.00,33.00,14.00,-30.00
255.00,146.00,-4425.00,32.00,14.00,-20.00
269.00,150.00,-4452.00,28.00,-9.00,-40.00
255.00,165.00,-4435.00,48.00,10.00,-35.00
267.00,179.00,-4426.00,38.00,2.00,-23.00
274.00,135.00,-4449.00,28.00,11.00,-48.00
265.00,151.00,-4437.00,43.00,4.00,-28.00
270.00,136.00,-4452.00,42.00,1.00,-27.00
235.00,161.00,-4450.00,31.00,5.00,-39.00
262.00,167.00,-4447.00,26.00,-7.00,-28.00
250.00,143.00,-4483.00,39.00,6.00,-23.00
273.00,137.00,-4451.00,47.00,8.00,-23.00
270.00,126.00,-4434.00,31.00,6.00,-29.00
280.00,125.00,-4456.00,36.00,4.00,-42.00
278.00,167.00,-4451.00,41.00,7.00,-35.00
276.00,143.00,-4430.00,40.00,7.00,-25.00
264.00,131.00,-4442.00,43.00,7.00,-30.00
261.00,123.00,-4442.00,33.00,3.00,-30.00
284.00,146.00,-4436.00,25.00,11.00,-16.00
255.00,151.00,-4407.00,51.00,8.00,-25.00
253.00,149.00,-4484.00,41.00,7.00,-21.00
271.00,143.00,-4465.00,28.00,-3.00,-33.00
266.00,157.00,-4450.00,34.00,7.00,-32.00
271.00,154.00,-4466.00,31.00,9.00,-37.00
267.00,158.00,-4462.00,53.00,-3.00,-23.00
252.00,154.00,-4462.00,30.00,8.00,-28.00
235.00,140.00,-4440.00,40.00,8.00,-30.00
256.00,163.00,-4422.00,39.00,10.00,-34.00
257.00,167.00,-4403.00,31.00,4.00,-19.00
236.00,146.00,-4453.00,36.00,10.00,-25.00
260.00,150.00,-4469.00,37.00,9.00,-25.00
233.00,141.00,-4448.00,35.00,7.00,-27.00
253.00,145.00,-4419.00,40.00,-2.00,-33.00
275.00,148.00,-4442.00,37.00,1.00,-29.00
262.00,162.00,-4471.00,32.00,4.00,-30.00
261.00,135.00,-4448.00,39.00,-3.00,-28.00
272.00,145.00,-4430.00,30.00,13.00,-30.00
250.00,168.00,-4453.00,33.00,0.00,-29.00
276.00,156.00,-4451.00,30.00,0.00,-33.00
279.00,144.00,-4436.00,31.00,0.00,-24.00
277.00,128.00,-4464.00,38.00,-1.00,-22.00
247.00,147.00,-4483.00,34.00,-1.00,-25.00
257.00,148.00,-4431.00,37.00,5.00,-27.00
250.00,159.00,-4448.00,35.00,0.00,-30.00
282.00,129.00,-4427.00,35.00,14.00,-35.00
256.00,154.00,-4471.00,36.00,-1.00,-36.00
259.00,141.00,-4467.00,52.00,6.00,-29.00
264.00,139.00,-4461.00,27.00,5.00,-30.00
267.00,143.00,-4422.00,53.00,13.00,-37.00
270.00,124.00,-4453.00,33.00,-2.00,-32.00
269.00,120.00,-4425.00,31.00,9.00,-23.00
227.00,127.00,-4438.00,44.00,0.00,-33.00
244.00,148.00,-4438.00,40.00,7.00,-16.00
255.00,122.00,-4436.00,41.00,2.00,-27.00
274.00,135.00,-4452.00,38.00,5.00,-29.00
279.00,138.00,-4410.00,44.00,15.00,-33.00
258.00,144.00,-4441.00,32.00,14.00,-36.00
233.00,132.00,-4429.00,43.00,5.00,-33.00
257.00,143.00,-4419.00,41.00,5.00,-28.00
264.00,140.00,-4447.00,32.00,5.00,-42.00
267.00,130.00,-4471.00,37.00,2.00,-30.00
271.00,170.00,-4467.00,49.00,2.00,-33.00
262.00,154.00,-4447.00,48.00,1.00,-42.00
279.00,136.00,-4438.00,33.00,1.00,-29.00
274.00,141.00,-4453.00,45.00,3.00,-34.00
269.00,159.00,-4438.00,41.00,3.00,-27.00
242.00,152.00,-4425.00,37.00,1.00,-16.00
235.00,143.00,-4414.00,43.00,6.00,-42.00
258.00,147.00,-4447.00,39.00,1.00,-28.00
271.00,139.00,-4463.00,38.00,7.00,-25.00
286.00,145.00,-4455.00,40.00,-4.00,-22.00
253.00,140.00,-4446.00,34.00,9.00,-27.00
252.00,145.00,-4421.00,35.00,2.00,-31.00
245.00,158.00,-4434.00,39.00,18.00,-33.00
256.00,135.00,-4429.00,38.00,12.00,-38.00
268.00,123.00,-4474.00,48.00,2.00,-45.00
271.00,130.00,-4466.00,47.00,14.00,-37.00
262.00,156.00,-4441.00,41.00,0.00,-24.00
269.00,143.00,-4451.00,38.00,5.00,-26.00
269.00,152.00,-4436.00,40.00,-1.00,-26.00
276.00,160.00,-4463.00,38.00,13.00,-35.00
263.00,146.00,-4447.00,32.00,5.00,-36.00
222.00,150.00,-4417.00,43.00,8.00,-42.00
266.00,164.00,-4415.00,40.00,1.00,-33.00
277.00,141.00,-4439.00,38.00,10.00,-14.00
267.00,129.00,-4452.00,40.00,6.00,-30.00
262.00,187.00,-4453.00,26.00,4.00,-25.00
262.00,155.00,-4462.00,41.00,2.00,-28.00
248.00,160.00,-4464.00,25.00,9.00,-33.00
278.00,160.00,-4414.00,43.00,13.00,-32.00
257.00,151.00,-4429.00,36.00,2.00,-24.00
274.00,160.00,-4462.00,41.00,12.00,-28.00
263.00,136.00,-4458.00,42.00,0.00,-30.00
248.00,153.00,-4438.00,37.00,12.00,-33.00
274.00,144.00,-4430.00,43.00,6.00,-31.00
279.00,148.00,-4453.00,44.00,9.00,-26.00
279.00,140.00,-4472.00,36.00,2.00,-22.00
267.00,158.00,-4432.00,38.00,8.00,-38.00
238.00,149.00,-4436.00,38.00,15.00,-35.00
260.00,155.00,-4441.00,47.00,-6.00,-32.00
257.00,168.00,-4444.00,30.00,11.00,-26.00
276.00,138.00,-4415.00,36.00,-5.00,-30.00
253.00,143.00,-4426.00,32.00,-4.00,-30.00
279.00,151.00,-4449.00,38.00,6.00,-31.00
290.00,141.00,-4465.00,38.00,8.00,-37.00
242.00,149.00,-4442.00,47.00,7.00,-29.00
261.00,168.00,-4473.00,28.00,-1.00,-33.00
263.00,127.00,-4464.00,31.00,6.00,-23.00
245.00,131.00,-4470.00,36.00,6.00,-34.00
262.00,147.00,-4414.00,47.00,9.00,-29.00
270.00,161.00,-4451.00,46.00,5.00,-27.00
264.00,129.00,-4437.00,29.00,5.00,-21.00
271.00,142.00,-4462.00,40.00,16.00,-31.00
271.00,141.00,-4432.00,42.00,6.00,-25.00
249.00,156.00,-4439.00,38.00,8.00,-34.00
244.00,159.00,-4448.00,26.00,5.00,-33.00
270.00,152.00,-4427.00,45.00,9.00,-24.00
279.00,152.00,-4444.00,48.00,-7.00,-25.00
242.00,152.00,-4484.00,32.00,16.00,-27.00
283.00,171.00,-4510.00,24.00,23.00,-28.00
271.00,129.00,-4427.00,41.00,2.00,-28.00
271.00,151.00,-4495.00,42.00,8.00,-28.00
267.00,151.00,-4439.00,23.00,12.00,-32.00
287.00,117.00,-4386.00,21.00,-8.00,-35.00
266.00,151.00,-4414.00,38.00,4.00,-28.00
238.00,136.00,-4433.00,30.00,2.00,-35.00
268.00,142.00,-4436.00,41.00,5.00,-23.00
247.00,120.00,-4452.00,31.00,9.00,-22.00
265.00,142.00,-4446.00,29.00,14.00,-19.00
260.00,147.00,-4430.00,42.00,8.00,-26.00
284.00,125.00,-4456.00,48.00,1.00,-32.00
273.00,125.00,-4439.00,22.00,9.00,-31.00
285.00,134.00,-4452.00,37.00,1.00,-30.00
252.00,148.00,-4453.00,41.00,5.00,-19.00
245.00,142.00,-4454.00,36.00,10.00,-27.00
244.00,158.00,-4446.00,37.00,11.00,-38.00
278.00,162.00,-4435.00,32.00,6.00,-32.00
241.00,135.00,-4447.00,38.00,4.00,-20.00
260.00,153.00,-4438.00,38.00,6.00,-22.00
239.00,139.00,-4450.00,39.00,5.00,-25.00
261.00,150.00,-4434.00,37.00,0.00,-30.00
248.00,112.00,-4452.00,32.00,4.00,-28.00
272.00,160.00,-4436.00,44.00,-3.00,-32.00
241.00,135.00,-4462.00,46.00,5.00,-30.00
283.00,156.00,-4486.00,42.00,6.00,-35.00
280.00,125.00,-4445.00,44.00,-2.00,-26.00
284.00,158.00,-4461.00,47.00,13.00,-25.00
284.00,124.00,-4473.00,36.00,-4.00,-40.00
238.00,146.00,-4413.00,32.00,-4.00,-38.00
294.00,130.00,-4440.00,55.00,16.00,-39.00
268.00,143.00,-4461.00,53.00,6.00,-31.00
279.00,142.00,-4421.00,48.00,1.00,-30.00
267.00,165.00,-4435.00,34.00,13.00,-26.00
257.00,126.00,-4396.00,25.00,7.00,-28.00
274.00,154.00,-4451.00,33.00,26.00,-25.00
263.00,136.00,-4452.00,29.00,13.00,-19.00
273.00,162.00,-4443.00,47.00,25.00,-26.00
267.00,112.00,-4463.00,61.00,24.00,-39.00
258.00,151.00,-4446.00,41.00,8.00,-26.00
259.00,182.00,-4457.00,48.00,21.00,-26.00
285.00,144.00,-4444.00,52.00,14.00,-44.00
264.00,138.00,-4459.00,49.00,17.00,-34.00
262.00,167.00,-4438.00,47.00,43.00,-31.00
159.00,3.00,-4608.00,122.00,42.00,-39.00
66.00,514.00,-3920.00,-88.00,-37.00,-39.00
257.00,233.00,-4528.00,28.00,98.00,-39.00
539.00,96.00,-4207.00,106.00,107.00,-27.00
179.00,123.00,-4524.00,79.00,-30.00,33.00
145.00,136.00,-4416.00,58.00,105.00,-4.00
327.00,75.00,-4420.00,-3.00,120.00,-54.00
291.00,123.00,-4495.00,71.00,26.00,0.00
221.00,147.00,-4501.00,100.00,100.00,-41.00
206.00,96.00,-4654.00,192.00,199.00,-100.00
640.00,-606.00,-5176.00,572.00,687.00,-243.00
846.00,-132.00,-3789.00,-231.00,693.00,-295.00
433.00,436.00,-4801.00,-261.00,1198.00,-400.00
849.00,-158.00,-4826.00,579.00,1398.00,-493.00
693.00,-242.00,-5051.00,66.00,1737.00,-536.00
588.00,-7.00,-4586.00,-153.00,1733.00,-533.00
710.00,125.00,-4613.00,199.00,1968.00,-424.00
633.00,234.00,-4710.00,170.00,1898.00,-550.00
521.00,49.00,-4051.00,49.00,1814.00,-481.00
110.00,307.00,-3769.00,33.00,1383.00,-340.00
196.00,146.00,-3626.00,260.00,915.00,-302.00
-9.00,258.00,-4203.00,225.00,677.00,-333.00
343.00,152.00,-4477.00,3.00,830.00,-405.00
359.00,99.00,-5202.00,48.00,966.00,-318.00
463.00,318.00,-4767.00,238.00,1352.00,-271.00
817.00,109.00,-4914.00,291.00,1679.00,-279.00
822.00,-17.00,-4498.00,144.00,1749.00,-286.00
802.00,-24.00,-4131.00,138.00,1759.00,-193.00
813.00,183.00,-4530.00,178.00,2024.00,-108.00
901.00,317.00,-4520.00,118.00,1910.00,-74.00
554.00,363.00,-4568.00,89.00,2125.00,25.00
460.00,388.00,-4747.00,117.00,2246.00,229.00
316.00,431.00,-4586.00,76.00,1912.00,367.00
387.00,459.00,-4162.00,137.00,2084.00,377.00
410.00,371.00,-4627.00,169.00,2734.00,486.00
501.00,454.00,-4562.00,39.00,3202.00,649.00
623.00,152.00,-4572.00,-27.00,2899.00,927.00
616.00,314.00,-4791.00,177.00,2803.00,967.00
767.00,231.00,-4747.00,-13.00,3086.00,1063.00
738.00,290.00,-4345.00,-191.00,3258.00,1057.00
1052.00,302.00,-4710.00,40.00,3350.00,1282.00
959.00,145.00,-4777.00,193.00,3423.00,1437.00
794.00,289.00,-4221.00,49.00,3378.00,1390.00
685.00,379.00,-4104.00,-187.00,3379.00,1568.00
453.00,-90.00,-3614.00,48.00,3461.00,1711.00
944.00,101.00,-4579.00,-150.00,3610.00,1621.00
851.00,-279.00,-4364.00,191.00,3387.00,1587.00
943.00,55.00,-3968.00,107.00,3210.00,1664.00
1336.00,-50.00,-4932.00,130.00,3851.00,1491.00
1524.00,-18.00,-5082.00,-450.00,3900.00,1315.00
1581.00,262.00,-4265.00,48.00,3362.00,1395.00
1583.00,45.00,-4878.00,-255.00,3035.00,1679.00
1369.00,-168.00,-4273.00,-207.00,3014.00,1401.00
1407.00,-194.00,-4612.00,-383.00,3420.00,1220.00
1121.00,-257.00,-3947.00,21.00,2817.00,1270.00
847.00,-132.00,-3687.00,38.00,2933.00,1194.00
1183.00,-328.00,-4622.00,-219.00,2908.00,1171.00
864.00,199.00,-3794.00,-81.00,2791.00,908.00
1038.00,100.00,-4066.00,-210.00,2908.00,1079.00
1411.00,4.00,-4034.00,63.00,2828.00,850.00
960.00,-111.00,-4329.00,41.00,2655.00,799.00
1386.00,137.00,-4201.00,21.00,2839.00,668.00
1472.00,-325.00,-4304.00,-151.00,2415.00,632.00
1346.00,29.00,-3830.00,2.00,2492.00,496.00
1778.00,-326.00,-4440.00,-92.00,2127.00,438.00
1649.00,-122.00,-3552.00,142.00,1949.00,281.00
1347.00,244.00,-3650.00,25.00,2597.00,-58.00
1610.00,17.00,-4715.00,136.00,2242.00,256.00
1806.00,245.00,-4475.00,-190.00,1578.00,-121.00
1545.00,326.00,-3927.00,-112.00,1722.00,73.00
1567.00,245.00,-4418.00,118.00,1872.00,-73.00
1809.00,-68.00,-4239.00,352.00,1519.00,38.00
1853.00,-31.00,-4067.00,17.00,1285.00,183.00
2060.00,181.00,-3697.00,138.00,1177.00,-102.00
1728.00,-92.00,-4165.00,-103.00,931.00,305.00
1833.00,430.00,-3733.00,232.00,573.00,-70.00
1261.00,-255.00,-3770.00,-278.00,749.00,27.00
1665.00,302.00,-4079.00,192.00,1020.00,-450.00
1638.00,22.00,-4462.00,-388.00,635.00,138.00
1705.00,438.00,-3757.00,361.00,144.00,-137.00
1663.00,-334.00,-4034.00,213.00,461.00,-19.00
1952.00,117.00,-3864.00,-197.00,387.00,-154.00
1483.00,-399.00,-3462.00,314.00,-75.00,-166.00
1536.00,258.00,-3359.00,205.00,233.00,-374.00
1860.00,-278.00,-3988.00,93.00,861.00,-486.00
1828.00,36.00,-4637.00,122.00,197.00,-182.00
1465.00,-29.00,-4211.00,303.00,-457.00,-313.00
1346.00,89.00,-4309.00,306.00,-120.00,-547.00
1251.00,-10.00,-4134.00,49.00,-19.00,-300.00
1011.00,148.00,-4310.00,187.00,-129.00,-691.00
1290.00,-20.00,-4029.00,111.00,-95.00,-637.00
1403.00,155.00,-3875.00,366.00,-241.00,-610.00
1527.00,-2.00,-3659.00,221.00,-128.00,-855.00
1626.00,-35.00,-4274.00,285.00,-181.00,-855.00
1571.00,136.00,-4429.00,329.00,293.00,-882.00
2021.00,222.00,-4101.00,702.00,255.00,-1006.00
1852.00,221.00,-4316.00,291.00,561.00,-941.00
1623.00,357.00,-3437.00,338.00,-101.00,-974.00
1923.00,65.00,-4685.00,556.00,298.00,-778.00
1849.00,178.00,-4173.00,389.00,89.00,-716.00
1660.00,252.00,-4405.00,231.00,265.00,-562.00
1668.00,55.00,-4805.00,259.00,359.00,-660.00
1718.00,152.00,-3811.00,286.00,216.00,-468.00
1393.00,382.00,-4021.00,-26.00,365.00,-336.00
1624.00,291.00,-3907.00,41.00,148.00,-207.00
1889.00,114.00,-4425.00,173.00,389.00,-67.00
1976.00,283.00,-4395.00,8.00,330.00,44.00
1998.00,270.00,-4150.00,-57.00,393.00,91.00
2164.00,354.00,-3893.00,-94.00,484.00,173.00
2024.00,121.00,-4167.00,-58.00,470.00,272.00
1898.00,180.00,-4285.00,-95.00,285.00,429.00
1752.00,338.00,-4267.00,-124.00,405.00,480.00
1639.00,78.00,-3841.00,-113.00,442.00,522.00
1859.00,16.00,-3796.00,-142.00,460.00,632.00
1964.00,335.00,-4386.00,-443.00,656.00,730.00
2311.00,-4.00,-4179.00,-265.00,358.00,772.00
1892.00,66.00,-3920.00,-439.00,664.00,864.00
1527.00,236.00,-3730.00,-231.00,336.00,1060.00
1762.00,17.00,-4249.00,-329.00,446.00,1026.00
2068.00,-72.00,-4248.00,-381.00,366.00,1089.00
1998.00,-1.00,-3733.00,-300.00,302.00,1169.00
1802.00,-198.00,-4219.00,-306.00,613.00,1173.00
1867.00,159.00,-3740.00,-395.00,82.00,1220.00
1894.00,49.00,-4336.00,-584.00,247.00,1176.00
1443.00,54.00,-4175.00,-359.00,226.00,1109.00
1580.00,106.00,-3889.00,-551.00,106.00,1024.00
1454.00,172.00,-4208.00,-417.00,112.00,1032.00
1307.00,159.00,-4175.00,-518.00,73.00,1001.00
1708.00,113.00,-3881.00,-525.00,-520.00,869.00
1766.00,-132.00,-4503.00,-452.00,-199.00,824.00
1701.00,-203.00,-3992.00,-233.00,-376.00,632.00
1452.00,-295.00,-3764.00,-133.00,-333.00,389.00
1786.00,-202.00,-4022.00,-178.00,-332.00,244.00
1601.00,-61.00,-4128.00,-42.00,-658.00,162.00
1592.00,14.00,-4258.00,-25.00,-702.00,30.00
1680.00,10.00,-4123.00,-11.00,-747.00,-241.00
1586.00,-58.00,-3847.00,9.00,-810.00,-302.00
1713.00,37.00,-4158.00,164.00,-791.00,-373.00
1764.00,127.00,-4192.00,290.00,-841.00,-393.00
1687.00,244.00,-4197.00,191.00,-791.00,-505.00
1802.00,134.00,-4005.00,149.00,-822.00,-490.00
1740.00,74.00,-4103.00,57.00,-840.00,-387.00
1636.00,40.00,-4226.00,129.00,-873.00,-257.00
1719.00,139.00,-4060.00,81.00,-975.00,-164.00
1608.00,155.00,-4189.00,94.00,-897.00,-351.00
1462.00,31.00,-4392.00,22.00,-866.00,-218.00
1366.00,96.00,-4494.00,54.00,-798.00,-211.00
1198.00,97.00,-4658.00,26.00,-447.00,-146.00
1368.00,186.00,-4504.00,4.00,-159.00,-85.00
1611.00,185.00,-4242.00,85.00,-40.00,-103.00
1605.00,186.00,-4404.00,68.00,192.00,-22.00
1813.00,149.00,-4164.00,60.00,105.00,-9.00
1785.00,128.00,-4070.00,8.00,61.00,77.00
1761.00,45.00,-3974.00,-35.00,-3.00,137.00
1753.00,53.00,-4040.00,-36.00,-105.00,129.00
1775.00,37.00,-3953.00,15.00,-231.00,41.00
1738.00,35.00,-4098.00,26.00,-276.00,-31.00
1850.00,58.00,-3941.00,34.00,-458.00,-11.00
1646.00,-30.00,-3888.00,6.00,-588.00,-47.00
1535.00,-10.00,-4133.00,5.00,-558.00,-34.00
1563.00,92.00,-4190.00,35.00,-709.00,-69.00
1541.00,20.00,-4113.00,2.00,-753.00,-172.00
1400.00,12.00,-4240.00,-43.00,-985.00,-140.00
1338.00,29.00,-4018.00,39.00,-995.00,-125.00
1334.00,148.00,-4287.00,43.00,-1021.00,-59.00
1674.00,47.00,-4382.00,64.00,-887.00,-66.00
1486.00,79.00,-4342.00,-121.00,-869.00,-139.00
1421.00,-440.00,-5178.00,29.00,-353.00,-312.00
1864.00,582.00,-3742.00,500.00,-433.00,237.00
1540.00,51.00,-4895.00,514.00,255.00,-25.00
1942.00,213.00,-3809.00,-172.00,48.00,-41.00
1800.00,-36.00,-4218.00,-80.00,-15.00,-193.00
1875.00,159.00,-4071.00,-16.00,-84.00,19.00
1634.00,130.00,-4164.00,112.00,-220.00,36.00
1534.00,174.00,-4223.00,-84.00,-58.00,111.00
1675.00,61.00,-4104.00,-47.00,-133.00,-45.00
1582.00,34.00,-4135.00,-66.00,-149.00,2.00
1543.00,57.00,-4210.00,30.00,-100.00,-65.00
1527.00,112.00,-4264.00,-23.00,-92.00,12.00
1594.00,153.00,-4181.00,4.00,-113.00,-9.00
1671.00,71.00,-4116.00,22.00,-113.00,-23.00
1589.00,-14.00,-4261.00,102.00,-27.00,10.00
1582.00,89.00,-4258.00,33.00,-25.00,68.00
1633.00,42.00,-4153.00,-44.00,20.00,-87.00
1608.00,50.00,-4207.00,40.00,19.00,-9.00
1572.00,93.00,-4199.00,34.00,-3.00,29.00
1686.00,184.00,-4276.00,-5.00,75.00,45.00
1772.00,150.00,-4168.00,18.00,-10.00,8.00
1704.00,138.00,-4079.00,11.00,-56.00,79.00
1633.00,159.00,-4200.00,-37.00,7.00,119.00
1711.00,150.00,-4086.00,-41.00,-5.00,130.00
1564.00,58.00,-4224.00,-16.00,-40.00,116.00
1525.00,-112.00,-4233.00,52.00,-63.00,87.00
1452.00,-23.00,-4268.00,33.00,42.00,60.00
1480.00,12.00,-4292.00,7.00,-55.00,-11.00
1447.00,12.00,-4227.00,30.00,-72.00,-43.00
1616.00,151.00,-4128.00,42.00,3.00,-93.00
1653.00,115.00,-4176.00,50.00,26.00,-63.00
1506.00,27.00,-4249.00,38.00,-13.00,-2.00
1583.00,96.00,-4193.00,28.00,68.00,-31.00
1608.00,83.00,-4234.00,59.00,54.00,-82.00
1566.00,28.00,-4253.00,62.00,34.00,-31.00
1563.00,109.00,-4191.00,68.00,6.00,-36.00
1554.00,135.00,-4144.00,13.00,-80.00,-41.00
1614.00,160.00,-4201.00,44.00,14.00,-3.00
1564.00,40.00,-4208.00,58.00,1.00,-33.00
1575.00,62.00,-4173.00,38.00,-38.00,3.00
1580.00,101.00,-4163.00,46.00,34.00,-49.00
1574.00,83.00,-4258.00,32.00,12.00,-43.00
1582.00,102.00,-4210.00,35.00,-14.00,-7.00
1577.00,116.00,-4144.00,60.00,13.00,-56.00
1596.00,73.00,-4162.00,37.00,8.00,-54.00
1586.00,64.00,-4230.00,34.00,-11.00,-41.00
1562.00,61.00,-4137.00,47.00,-6.00,-27.00
1617.00,92.00,-4220.00,42.00,19.00,-34.00
1592.00,100.00,-4179.00,38.00,-14.00,-27.00
1585.00,92.00,-4178.00,39.00,-2.00,-39.00
1545.00,100.00,-4170.00,31.00,14.00,-31.00
1588.00,103.00,-4176.00,43.00,12.00,-13.00
1593.00,97.00,-4190.00,41.00,10.00,-21.00
1578.00,79.00,-4187.00,19.00,9.00,-48.00
1606.00,62.00,-4148.00,37.00,11.00,-31.00
1580.00,113.00,-4218.00,40.00,6.00,-16.00
1576.00,95.00,-4184.00,36.00,3.00,-15.00
1562.00,91.00,-4142.00,39.00,8.00,-35.00
1594.00,83.00,-4202.00,30.00,9.00,-27.00
1613.00,81.00,-4178.00,39.00,3.00,-31.00
1576.00,67.00,-4197.00,33.00,-3.00,-25.00
1592.00,73.00,-4204.00,26.00,1.00,-29.00
1593.00,77.00,-4203.00,34.00,-1.00,-33.00
1587.00,79.00,-4175.00,36.00,-2.00,-33.00
1581.00,89.00,-4202.00,42.00,-2.00,-32.00
1555.00,55.00,-4198.00,34.00,14.00,-25.00
1581.00,92.00,-4186.00,37.00,0.00,-35.00
1590.00,80.00,-4209.00,41.00,-5.00,-33.00
1596.00,84.00,-4182.00,37.00,9.00,-23.00
1587.00,118.00,-4198.00,36.00,20.00,-25.00
1596.00,73.00,-4173.00,37.00,6.00,-20.00
1602.00,102.00,-4208.00,42.00,9.00,-26.00
1573.00,112.00,-4212.00,40.00,5.00,-19.00
1588.00,92.00,-4206.00,40.00,11.00,-34.00
1565.00,93.00,-4179.00,42.00,4.00,-23.00
1591.00,98.00,-4217.00,30.00,9.00,-21.00
1566.00,74.00,-4199.00,27.00,-3.00,-31.00
1592.00,61.00,-4171.00,32.00,0.00,-32.00
1590.00,85.00,-4164.00,30.00,4.00,-27.00
1586.00,86.00,-4187.00,31.00,3.00,-29.00
1570.00,83.00,-4195.00,38.00,0.00,-38.00
1587.00,97.00,-4219.00,37.00,-5.00,-30.00
1587.00,72.00,-4222.00,38.00,-1.00,-35.00
1552.00,94.00,-4189.00,36.00,0.00,-29.00
1586.00,82.00,-4169.00,42.00,-2.00,-35.00
1564.00,71.00,-4188.00,37.00,8.00,-26.00
1593.00,85.00,-4192.00,41.00,6.00,-36.00
1588.00,107.00,-4222.00,35.00,6.00,-32.00
1597.00,99.00,-4175.00,27.00,15.00,-30.00
1586.00,55.00,-4179.00,37.00,6.00,-28.00
1592.00,74.00,-4179.00,34.00,13.00,-33.00
1568.00,85.00,-4152.00,32.00,-2.00,-24.00
1602.00,86.00,-4176.00,42.00,2.00,-34.00
1599.00,81.00,-4171.00,37.00,4.00,-20.00
1588.00,100.00,-4165.00,36.00,-4.00,-39.00
1593.00,74.00,-4213.00,33.00,2.00,-32.00
1581.00,97.00,-4205.00,34.00,6.00,-36.00
1551.00,96.00,-4182.00,26.00,-4.00,-29.00
1561.00,105.00,-4194.00,29.00,-6.00,-37.00
1594.00,76.00,-4184.00,36.00,2.00,-34.00
1581.00,95.00,-4171.00,41.00,12.00,-43.00
1590.00,66.00,-4185.00,32.00,-1.00,-40.00
1587.00,111.00,-4195.00,52.00,10.00,-38.00
1573.00,85.00,-4212.00,44.00,11.00,-33.00
1583.00,65.00,-4197.00,41.00,7.00,-25.00
1571.00,87.00,-4200.00,31.00,15.00,-26.00
1598.00,66.00,-4209.00,41.00,10.00,-23.00
1573.00,89.00,-4173.00,34.00,6.00,-24.00
1567.00,108.00,-4214.00,39.00,4.00,-29.00
1587.00,92.00,-4178.00,36.00,6.00,-39.00
1602.00,78.00,-4195.00,25.00,5.00,-26.00
1568.00,88.00,-4210.00,31.00,5.00,-26.00
1588.00,91.00,-4185.00,32.00,2.00,-34.00
1574.00,95.00,-4178.00,23.00,5.00,-38.00
1557.00,98.00,-4198.00,33.00,1.00,-28.00
1565.00,84.00,-4185.00,29.00,5.00,-37.00
1577.00,64.00,-4179.00,50.00,7.00,-30.00
1595.00,87.00,-4177.00,40.00,10.00,-28.00
1569.00,86.00,-4201.00,37.00,6.00,-33.00
1573.00,87.00,-4213.00,33.00,2.00,-28.00
1572.00,95.00,-4207.00,32.00,3.00,-33.00
1587.00,90.00,-4205.00,40.00,0.00,-16.00
1563.00,90.00,-4189.00,45.00,7.00,-25.00
1583.00,77.00,-4189.00,41.00,-3.00,-31.00
1619.00,72.00,-4195.00,35.00,14.00,-20.00
1563.00,83.00,-4202.00,39.00,-6.00,-29.00
1572.00,84.00,-4218.00,45.00,8.00,-38.00
1561.00,96.00,-4223.00,33.00,6.00,-32.00
1588.00,88.00,-4218.00,40.00,3.00,-22.00
1578.00,79.00,-4182.00,39.00,2.00,-37.00
1582.00,86.00,-4205.00,39.00,-1.00,-36.00
1570.00,72.00,-4186.00,30.00,7.00,-34.00
1566.00,77.00,-4214.00,39.00,6.00,-25.00
1578.00,118.00,-4163.00,28.00,2.00,-40.00
1564.00,106.00,-4179.00,34.00,-1.00,-29.00
1569.00,89.00,-4159.00,39.00,6.00,-21.00
1582.00,88.00,-4182.00,36.00,-4.00,-37.00
1603.00,60.00,-4185.00,38.00,4.00,-31.00
1582.00,68.00,-4211.00,36.00,4.00,-30.00
1601.00,79.00,-4188.00,55.00,-4.00,-24.00
1581.00,79.00,-4193.00,39.00,1.00,-29.00
1585.00,90.00,-4176.00,39.00,17.00,-33.00
1573.00,84.00,-4166.00,35.00,6.00,-32.00
1587.00,71.00,-4202.00,34.00,13.00,-30.00
1562.00,69.00,-4216.00,35.00,4.00,-34.00
1575.00,73.00,-4178.00,34.00,9.00,-24.00
1574.00,84.00,-4192.00,28.00,7.00,-30.00
1588.00,82.00,-4198.00,40.00,1.00,-33.00
1597.00,62.00,-4194.00,47.00,10.00,-32.00
1572.00,100.00,-4193.00,47.00,8.00,-34.00
1578.00,65.00,-4202.00,37.00,1.00,-32.00
1583.00,88.00,-4217.00,23.00,6.00,-26.00
1586.00,95.00,-4166.00,38.00,4.00,-24.00
1569.00,70.00,-4191.00,33.00,4.00,-33.00
1593.00,79.00,-4200.00,32.00,1.00,-29.00
1602.00,97.00,-4195.00,37.00,8.00,-29.00
1591.00,78.00,-4219.00,43.00,1.00,-24.00
1562.00,75.00,-4185.00,36.00,0.00,-29.00
1560.00,88.00,-4170.00,37.00,1.00,-31.00
1574.00,112.00,-4189.00,29.00,4.00,-23.00
1556.00,102.00,-4212.00,41.00,7.00,-39.00
1574.00,99.00,-4174.00,32.00,11.00,-31.00
1584.00,89.00,-4178.00,45.00,-4.00,-22.00
1578.00,86.00,-4185.00,37.00,-5.00,-37.00
1556.00,92.00,-4197.00,39.00,10.00,-37.00
1604.00,95.00,-4212.00,40.00,16.00,-35.00
1582.00,85.00,-4185.00,26.00,11.00,-33.00
1591.00,88.00,-4198.00,38.00,0.00,-20.00
1595.00,86.00,-4203.00,38.00,4.00,-32.00
1591.00,85.00,-4208.00,41.00,10.00,-23.00
1579.00,86.00,-4224.00,36.00,4.00,-28.00
1577.00,84.00,-4185.00,47.00,6.00,-25.00
1585.00,83.00,-4190.00,36.00,11.00,-45.00
1561.00,67.00,-4186.00,33.00,-2.00,-33.00
1592.00,86.00,-4213.00,53.00,11.00,-27.00
1607.00,68.00,-4212.00,36.00,-1.00,-37.00
1568.00,82.00,-4189.00,36.00,0.00,-26.00
1585.00,64.00,-4199.00,43.00,13.00,-29.00
1597.00,104.00,-4194.00,33.00,7.00,-32.00
1584.00,79.00,-4186.00,37.00,1.00,-24.00
1565.00,89.00,-4189.00,43.00,1.00,-32.00
1578.00,116.00,-4198.00,38.00,6.00,-34.00
1585.00,96.00,-4180.00,39.00,6.00,-24.00
1563.00,58.00,-4208.00,40.00,-3.00,-24.00
1588.00,96.00,-4185.00,46.00,5.00,-38.00
1586.00,77.00,-4186.00,47.00,23.00,-32.00
1564.00,99.00,-4199.00,43.00,-2.00,-33.00
1591.00,77.00,-4170.00,38.00,2.00,-22.00
1574.00,66.00,-4196.00,28.00,-2.00,-30.00
1595.00,110.00,-4201.00,39.00,-1.00,-33.00
1583.00,83.00,-4180.00,31.00,9.00,-23.00
1563.00,91.00,-4171.00,34.00,-2.00,-22.00
1577.00,78.00,-4191.00,34.00,5.00,-34.00
1567.00,66.00,-4176.00,39.00,3.00,-36.00
1583.00,65.00,-4208.00,32.00,5.00,-19.00
1563.00,72.00,-4182.00,38.00,-1.00,-25.00
1636.00,83.00,-4186.00,43.00,3.00,-18.00
1593.00,75.00,-4168.00,39.00,0.00,-20.00
1573.00,94.00,-4218.00,37.00,15.00,-31.00
1567.00,70.00,-4202.00,53.00,1.00,-27.00
1573.00,70.00,-4184.00,38.00,4.00,-26.00
1564.00,67.00,-4197.00,35.00,12.00,-27.00
1574.00,90.00,-4213.00,40.00,15.00,-22.00
1594.00,73.00,-4191.00,34.00,1.00,-40.00
1566.00,67.00,-4177.00,51.00,12.00,-37.00
1590.00,57.00,-4199.00,34.00,-5.00,-33.00
1584.00,96.00,-4162.00,39.00,6.00,-24.00
1576.00,101.00,-4213.00,47.00,9.00,-29.00
1574.00,89.00,-4187.00,38.00,6.00,-32.00
1578.00,76.00,-4185.00,39.00,3.00,-28.00
1578.00,104.00,-4207.00,37.00,0.00,-31.00
1568.00,79.00,-4233.00,34.00,-4.00,-36.00
1583.00,92.00,-4196.00,42.00,15.00,-35.00
1589.00,79.00,-4193.00,40.00,10.00,-36.00
1598.00,62.00,-4213.00,42.00,-1.00,-29.00
1560.00,69.00,-4202.00,30.00,3.00,-34.00
1608.00,71.00,-4180.00,38.00,7.00,-31.00
1585.00,86.00,-4172.00,30.00,-3.00,-30.00
1607.00,86.00,-4198.00,34.00,16.00,-35.00
1600.00,84.00,-4158.00,27.00,-1.00,-26.00
1565.00,78.00,-4228.00,25.00,5.00,-29.00
1585.00,110.00,-4163.00,30.00,-7.00,-34.00
1583.00,81.00,-4196.00,36.00,7.00,-33.00
1594.00,67.00,-4179.00,36.00,8.00,-39.00
1574.00,103.00,-4201.00,30.00,11.00,-26.00
1573.00,88.00,-4170.00,38.00,11.00,-36.00
1561.00,82.00,-4199.00,30.00,12.00,-19.00
1576.00,103.00,-4205.00,47.00,2.00,-18.00
1602.00,61.00,-4191.00,37.00,0.00,-27.00
1580.00,92.00,-4194.00,42.00,6.00,-27.00
1586.00,82.00,-4196.00,34.00,13.00,-30.00
1574.00,78.00,-4211.00,30.00,11.00,-30.00
1577.00,50.00,-4213.00,32.00,8.00,-32.00
1582.00,95.00,-4181.00,38.00,-1.00,-29.00
1588.00,68.00,-4173.00,31.00,1.00,-35.00
1593.00,83.00,-4193.00,37.00,-2.00,-31.00
1557.00,90.00,-4193.00,40.00,-2.00,-32.00
1588.00,76.00,-4173.00,38.00,11.00,-30.00
1576.00,104.00,-4192.00,50.00,6.00,-37.00
1603.00,85.00,-4188.00,31.00,11.00,-28.00
1591.00,93.00,-4173.00,35.00,9.00,-38.00
1585.00,70.00,-4207.00,56.00,4.00,-30.00
1581.00,83.00,-4193.00,50.00,13.00,-28.00
1596.00,99.00,-4156.00,28.00,8.00,-32.00
1604.00,76.00,-4218.00,31.00,8.00,-36.00
1572.00,86.00,-4181.00,47.00,2.00,-24.00
1597.00,107.00,-4196.00,32.00,3.00,-26.00
1568.00,107.00,-4208.00,52.00,4.00,-29.00
1591.00,95.00,-4193.00,39.00,12.00,-28.00
1575.00,70.00,-4192.00,40.00,2.00,-21.00
1600.00,105.00,-4190.00,40.00,6.00,-30.00
1613.00,81.00,-4189.00,36.00,3.00,-29.00
1563.00,75.00,-4220.00,32.00,6.00,-21.00
1578.00,74.00,-4221.00,41.00,9.00,-27.00
1566.00,80.00,-4168.00,24.00,-2.00,-40.00
1604.00,80.00,-4227.00,40.00,3.00,-30.00
1569.00,94.00,-4205.00,33.00,-11.00,-40.00
1577.00,87.00,-4160.00,45.00,-8.00,-30.00
1578.00,66.00,-4206.00,35.00,-2.00,-25.00
1586.00,78.00,-4191.00,25.00,8.00,-24.00
1574.00,64.00,-4203.00,35.00,6.00,-38.00
1569.00,96.00,-4217.00,31.00,18.00,-39.00
1582.00,105.00,-4226.00,29.00,5.00,-28.00
1559.00,101.00,-4183.00,41.00,5.00,-38.00
1604.00,94.00,-4173.00,32.00,9.00,-40.00
1590.00,86.00,-4202.00,41.00,1.00,-13.00
1571.00,101.00,-4216.00,38.00,-1.00,-26.00
1599.00,99.00,-4185.00,34.00,2.00,-30.00
1595.00,99.00,-4206.00,33.00,-3.00,-27.00
1563.00,80.00,-4153.00,39.00,5.00,-28.00
1555.00,87.00,-4227.00,39.00,12.00,-42.00
1566.00,72.00,-4189.00,35.00,5.00,-33.00
1585.00,86.00,-4177.00,22.00,7.00,-43.00
1583.00,71.00,-4203.00,37.00,3.00,-32.00
1587.00,89.00,-4204.00,34.00,4.00,-30.00
1569.00,96.00,-4205.00,37.00,7.00,-37.00
1584.00,91.00,-4209.00,43.00,7.00,-32.00
1592.00,72.00,-4192.00,42.00,-5.00,-33.00
1569.00,87.00,-4164.00,49.00,2.00,-25.00
1576.00,72.00,-4208.00,22.00,0.00,-27.00
1576.00,96.00,-4181.00,41.00,4.00,-24.00
1586.00,104.00,-4201.00,31.00,1.00,-25.00
1573.00,62.00,-4180.00,37.00,7.00,-27.00
1563.00,104.00,-4164.00,42.00,-9.00,-26.00
1588.00,73.00,-4242.00,44.00,-3.00,-32.00
1587.00,84.00,-4172.00,29.00,4.00,-17.00
1578.00,86.00,-4170.00,35.00,-3.00,-32.00
1580.00,85.00,-4188.00,23.00,1.00,-25.00
1581.00,98.00,-4198.00,32.00,12.00,-26.00
1575.00,106.00,-4178.00,33.00,-7.00,-35.00
1592.00,66.00,-4190.00,38.00,7.00,-34.00
1604.00,80.00,-4187.00,38.00,4.00,-27.00
1592.00,87.00,-4190.00,32.00,12.00,-31.00
1576.00,70.00,-4179.00,42.00,-3.00,-41.00
1582.00,61.00,-4204.00,41.00,9.00,-30.00
1595.00,106.00,-4190.00,40.00,10.00,-19.00
1561.00,75.00,-4182.00,34.00,-1.00,-38.00
1594.00,95.00,-4195.00,41.00,-6.00,-32.00
1602.00,105.00,-4208.00,33.00,3.00,-29.00
1566.00,99.00,-4248.00,44.00,2.00,-29.00
1569.00,83.00,-4172.00,26.00,3.00,-34.00
1573.00,91.00,-4190.00,32.00,2.00,-22.00
1578.00,57.00,-4203.00,36.00,5.00,-37.00
1584.00,73.00,-4199.00,34.00,9.00,-24.00
1572.00,64.00,-4193.00,23.00,0.00,-27.00
1570.00,91.00,-4193.00,23.00,6.00,-29.00
1619.00,81.00,-4212.00,41.00,4.00,-25.00
1595.00,93.00,-4186.00,44.00,2.00,-19.00
1560.00,59.00,-4158.00,41.00,14.00,-27.00
1571.00,86.00,-4194.00,33.00,1.00,-21.00
1572.00,72.00,-4208.00,44.00,1.00,-23.00
1570.00,95.00,-4181.00,35.00,8.00,-38.00
1569.00,75.00,-4192.00,43.00,5.00,-40.00
1589.00,61.00,-4193.00,32.00,9.00,-37.00
1578.00,89.00,-4197.00,42.00,5.00,-31.00
1587.00,72.00,-4158.00,38.00,4.00,-33.00
1595.00,63.00,-4184.00,31.00,10.00,-42.00
1571.00,85.00,-4206.00,44.00,11.00,-28.00
1582.00,79.00,-4195.00,34.00,8.00,-27.00
1580.00,104.00,-4210.00,30.00,8.00,-26.00
1573.00,87.00,-4166.00,35.00,6.00,-26.00
1582.00,70.00,-4201.00,27.00,0.00,-25.00
1566.00,84.00,-4174.00,40.00,2.00,-24.00
1583.00,80.00,-4211.00,43.00,0.00,-23.00
1592.00,60.00,-4198.00,35.00,7.00,-21.00
1580.00,99.00,-4190.00,43.00,-9.00,-30.00
1576.00,96.00,-4223.00,37.00,11.00,-33.00
1568.00,72.00,-4207.00,45.00,3.00,-28.00
1566.00,95.00,-4189.00,37.00,-2.00,-28.00
1585.00,79.00,-4153.00,36.00,2.00,-47.00
1581.00,80.00,-4146.00,30.00,5.00,-30.00
1588.00,117.00,-4211.00,33.00,-1.00,-37.00
1589.00,97.00,-4188.00,31.00,12.00,-25.00
1588.00,70.00,-4223.00,41.00,5.00,-39.00
1590.00,98.00,-4164.00,38.00,-1.00,-40.00
1589.00,80.00,-4219.00,42.00,-4.00,-24.00
1574.00,104.00,-4209.00,41.00,1.00,-26.00
1554.00,78.00,-4209.00,26.00,6.00,-38.00
1567.00,79.00,-4208.00,43.00,7.00,-33.00
1592.00,76.00,-4208.00,29.00,7.00,-36.00
1594.00,79.00,-4194.00,33.00,11.00,-33.00
1582.00,56.00,-4198.00,44.00,5.00,-33.00
1583.00,72.00,-4212.00,42.00,4.00,-43.00
1579.00,74.00,-4153.00,37.00,7.00,-30.00
1588.00,74.00,-4201.00,31.00,2.00,-18.00
1596.00,77.00,-4210.00,47.00,5.00,-26.00
1584.00,99.00,-4215.00,36.00,4.00,-30.00
1573.00,65.00,-4170.00,31.00,0.00,-31.00
1586.00,83.00,-4201.00,34.00,11.00,-31.00
1582.00,93.00,-4199.00,44.00,5.00,-37.00
1591.00,97.00,-4215.00,40.00,-4.00,-31.00
1563.00,85.00,-4188.00,39.00,10.00,-40.00
1585.00,81.00,-4190.00,40.00,3.00,-18.00
1571.00,88.00,-4233.00,39.00,2.00,-33.00
1588.00,86.00,-4182.00,33.00,17.00,-22.00
1586.00,80.00,-4210.00,27.00,10.00,-31.00
1598.00,94.00,-4184.00,33.00,11.00,-35.00
1593.00,83.00,-4199.00,50.00,10.00,-40.00
1586.00,91.00,-4218.00,33.00,5.00,-26.00
1558.00,94.00,-4207.00,37.00,9.00,-35.00
1591.00,60.00,-4184.00,41.00,1.00,-19.00
1592.00,67.00,-4197.00,35.00,16.00,-34.00
1567.00,89.00,-4207.00,45.00,7.00,-34.00
1596.00,78.00,-4169.00,19.00,6.00,-26.00
1588.00,93.00,-4180.00,31.00,8.00,-24.00
1604.00,95.00,-4177.00,51.00,15.00,-26.00
1582.00,89.00,-4190.00,43.00,11.00,-33.00
1569.00,84.00,-4176.00,44.00,10.00,-32.00
1561.00,57.00,-4185.00,35.00,8.00,-34.00
1578.00,84.00,-4186.00,43.00,7.00,-25.00
1581.00,76.00,-4167.00,32.00,11.00,-27.00
1600.00,110.00,-4196.00,39.00,8.00,-30.00
1561.00,83.00,-4241.00,53.00,-2.00,-28.00
1591.00,83.00,-4156.00,41.00,12.00,-43.00
1585.00,83.00,-4220.00,38.00,4.00,-23.00
1598.00,50.00,-4204.00,31.00,7.00,-38.00
1568.00,78.00,-4179.00,39.00,12.00,-27.00
1565.00,77.00,-4216.00,36.00,1.00,-31.00
1559.00,101.00,-4195.00,41.00,8.00,-31.00
1578.00,95.00,-4215.00,38.00,6.00,-38.00
1592.00,78.00,-4213.00,30.00,11.00,-22.00
1570.00,74.00,-4198.00,36.00,-5.00,-34.00
1566.00,74.00,-4194.00,49.00,15.00,-37.00
1582.00,91.00,-4195.00,37.00,8.00,-22.00
1588.00,93.00,-4185.00,30.00,4.00,-24.00
1572.00,86.00,-4191.00,45.00,5.00,-29.00
1580.00,84.00,-4182.00,45.00,12.00,-34.00
1539.00,89.00,-4221.00,28.00,12.00,-28.00
1563.00,76.00,-4173.00,31.00,3.00,-26.00
1591.00,104.00,-4200.00,33.00,4.00,-27.00
1592.00,72.00,-4189.00,43.00,-8.00,-41.00
1578.00,100.00,-4178.00,39.00,11.00,-41.00
1556.00,97.00,-4172.00,39.00,12.00,-37.00
1587.00,73.00,-4212.00,36.00,9.00,-25.00
1575.00,82.00,-4190.00,40.00,0.00,-34.00
1573.00,113.00,-4171.00,44.00,6.00,-33.00
1570.00,92.00,-4199.00,36.00,3.00,-25.00
1584.00,76.00,-4205.00,42.00,14.00,-28.00
1583.00,84.00,-4206.00,29.00,0.00,-33.00
1565.00,80.00,-4181.00,34.00,6.00,-50.00
1607.00,98.00,-4177.00,33.00,-3.00,-26.00
1566.00,68.00,-4145.00,35.00,3.00,-25.00
1577.00,86.00,-4205.00,48.00,12.00,-35.00
1578.00,90.00,-4231.00,38.00,5.00,-38.00
1571.00,85.00,-4165.00,32.00,13.00,-34.00
1572.00,84.00,-4208.00,34.00,7.00,-30.00
1580.00,69.00,-4201.00,34.00,7.00,-37.00
1572.00,95.00,-4187.00,33.00,0.00,-32.00
1558.00,100.00,-4202.00,27.00,-2.00,-24.00
1594.00,86.00,-4200.00,38.00,8.00,-35.00
1576.00,88.00,-4228.00,43.00,-4.00,-35.00
1607.00,79.00,-4180.00,38.00,13.00,-31.00
1546.00,80.00,-4186.00,29.00,12.00,-32.00
1588.00,94.00,-4212.00,26.00,3.00,-28.00
1567.00,79.00,-4214.00,44.00,3.00,-40.00
1563.00,85.00,-4192.00,41.00,0.00,-25.00
1575.00,77.00,-4175.00,32.00,8.00,-37.00
1585.00,82.00,-4185.00,34.00,9.00,-35.00
1578.00,116.00,-4216.00,35.00,7.00,-30.00
1573.00,89.00,-4187.00,43.00,14.00,-36.00
1581.00,73.00,-4199.00,34.00,5.00,-28.00
1585.00,53.00,-4196.00,28.00,10.00,-27.00
1566.00,72.00,-4181.00,40.00,-4.00,-34.00
1605.00,95.00,-4216.00,38.00,4.00,-26.00
1578.00,84.00,-4171.00,39.00,5.00,-45.00
1575.00,78.00,-4212.00,36.00,10.00,-29.00
1585.00,89.00,-4218.00,38.00,3.00,-26.00
1569.00,79.00,-4199.00,45.00,4.00,-25.00
1588.00,72.00,-4187.00,38.00,2.00,-27.00
1579.00,68.00,-4184.00,36.00,-7.00,-23.00
1576.00,72.00,-4185.00,33.00,9.00,-38.00
1563.00,84.00,-4225.00,41.00,7.00,-19.00
1577.00,102.00,-4197.00,35.00,5.00,-35.00
1577.00,87.00,-4193.00,32.00,12.00,-41.00
1591.00,81.00,-4246.00,40.00,3.00,-38.00
1590.00,102.00,-4223.00,41.00,5.00,-35.00
1574.00,86.00,-4192.00,42.00,11.00,-29.00
1598.00,99.00,-4194.00,43.00,13.00,-32.00
1567.00,81.00,-4181.00,37.00,-1.00,-39.00
1588.00,85.00,-4210.00,33.00,1.00,-35.00
1578.00,89.00,-4168.00,33.00,-2.00,-36.00
1581.00,65.00,-4194.00,46.00,3.00,-23.00
1581.00,102.00,-4195.00,27.00,3.00,-39.00
1583.00,83.00,-4227.00,27.00,6.00,-20.00
1570.00,110.00,-4216.00,44.00,2.00,-27.00
1558.00,73.00,-4216.00,32.00,-8.00,-31.00
1557.00,62.00,-4203.00,31.00,2.00,-29.00
1565.00,108.00,-4246.00,40.00,11.00,-32.00
1561.00,79.00,-4196.00,47.00,12.00,-30.00
1579.00,92.00,-4186.00,32.00,10.00,-30.00
1568.00,86.00,-4152.00,46.00,11.00,-26.00
1584.00,91.00,-4226.00,35.00,10.00,-23.00
1556.00,87.00,-4201.00,34.00,7.00,-18.00
1572.00,84.00,-4229.00,43.00,4.00,-27.00
1583.00,75.00,-4192.00,41.00,3.00,-32.00
1573.00,76.00,-4196.00,41.00,0.00,-35.00
1596.00,102.00,-4193.00,38.00,0.00,-35.00
1574.00,63.00,-4181.00,41.00,13.00,-33.00
1581.00,94.00,-4203.00,47.00,20.00,-24.00
1575.00,95.00,-4167.00,38.00,11.00,-28.00
1570.00,67.00,-4209.00,36.00,21.00,-27.00
1569.00,74.00,-4201.00,38.00,6.00,-42.00
1566.00,79.00,-4210.00,36.00,-1.00,-28.00
1573.00,67.00,-4167.00,37.00,1.00,-22.00
1585.00,82.00,-4204.00,51.00,4.00,-22.00
1580.00,79.00,-4165.00,49.00,6.00,-43.00
1596.00,90.00,-4201.00,54.00,7.00,-31.00
1561.00,95.00,-4179.00,38.00,10.00,-24.00
1597.00,99.00,-4237.00,38.00,5.00,-26.00
1567.00,78.00,-4186.00,41.00,-8.00,-33.00
1597.00,94.00,-4220.00,32.00,-2.00,-46.00
1600.00,100.00,-4221.00,41.00,8.00,-24.00
1586.00,99.00,-4184.00,43.00,4.00,-30.00
1572.00,89.00,-4194.00,47.00,8.00,-30.00
1606.00,89.00,-4201.00,45.00,5.00,-17.00
1581.00,74.00,-4202.00,25.00,1.00,-29.00
1567.00,75.00,-4227.00,36.00,6.00,-28.00
1584.00,77.00,-4194.00,30.00,-4.00,-36.00
1595.00,92.00,-4184.00,44.00,14.00,-25.00
1579.00,72.00,-4160.00,32.00,4.00,-25.00
1579.00,66.00,-4208.00,27.00,5.00,-33.00
1575.00,94.00,-4203.00,43.00,7.00,-20.00
1596.00,63.00,-4186.00,27.00,10.00,-25.00
1592.00,71.00,-4214.00,45.00,9.00,-32.00
1579.00,101.00,-4186.00,42.00,11.00,-39.00
1563.00,67.00,-4221.00,38.00,5.00,-30.00
1599.00,73.00,-4220.00,38.00,6.00,-36.00
1572.00,113.00,-4184.00,34.00,15.00,-25.00
1585.00,83.00,-4215.00,22.00,13.00,-25.00
1585.00,59.00,-4199.00,23.00,0.00,-29.00
1583.00,78.00,-4198.00,34.00,5.00,-35.00
1592.00,116.00,-4194.00,43.00,16.00,-29.00
1565.00,82.00,-4191.00,40.00,2.00,-41.00
1580.00,58.00,-4187.00,36.00,-1.00,-37.00
1594.00,99.00,-4175.00,45.00,0.00,-27.00
1608.00,103.00,-4194.00,36.00,11.00,-36.00
1574.00,95.00,-4189.00,27.00,11.00,-22.00
1582.00,78.00,-4160.00,36.00,10.00,-31.00
1558.00,93.00,-4181.00,30.00,13.00,-21.00
1582.00,69.00,-4177.00,41.00,10.00,-27.00
1593.00,99.00,-4195.00,54.00,5.00,-37.00
1572.00,90.00,-4217.00,37.00,1.00,-23.00
1593.00,93.00,-4180.00,36.00,15.00,-38.00
1589.00,94.00,-4195.00,34.00,8.00,-21.00
1581.00,85.00,-4218.00,34.00,0.00,-28.00
1578.00,85.00,-4186.00,33.00,5.00,-17.00
1573.00,107.00,-4201.00,39.00,12.00,-30.00
1566.00,55.00,-4183.00,30.00,3.00,-35.00
1585.00,102.00,-4157.00,18.00,-1.00,-19.00
1604.00,85.00,-4179.00,29.00,3.00,-36.00
1568.00,85.00,-4218.00,36.00,6.00,-24.00
1574.00,87.00,-4189.00,31.00,4.00,-45.00
1574.00,98.00,-4180.00,37.00,5.00,-29.00
1605.00,72.00,-4220.00,36.00,-7.00,-31.00
1562.00,103.00,-4176.00,39.00,-2.00,-21.00
1593.00,99.00,-4188.00,46.00,-2.00,-22.00
1580.00,81.00,-4189.00,30.00,7.00,-29.00
1588.00,93.00,-4188.00,36.00,13.00,-28.00
1573.00,87.00,-4185.00,37.00,16.00,-31.00
1567.00,73.00,-4186.00,34.00,-4.00,-33.00
1590.00,97.00,-4173.00,38.00,8.00,-34.00
1584.00,91.00,-4201.00,48.00,4.00,-24.00
1576.00,90.00,-4209.00,40.00,2.00,-27.00
1568.00,76.00,-4176.00,34.00,4.00,-14.00
1607.00,74.00,-4209.00,43.00,-7.00,-33.00
1585.00,78.00,-4216.00,36.00,6.00,-25.00
1568.00,78.00,-4210.00,34.00,12.00,-25.00
1584.00,93.00,-4222.00,30.00,7.00,-26.00
1583.00,91.00,-4210.00,41.00,2.00,-25.00
1591.00,95.00,-4195.00,42.00,5.00,-33.00
1567.00,89.00,-4213.00,31.00,2.00,-27.00
1587.00,100.00,-4195.00,29.00,2.00,-21.00
1559.00,72.00,-4185.00,33.00,3.00,-28.00
1575.00,85.00,-4209.00,44.00,10.00,-23.00
1568.00,92.00,-4197.00,39.00,11.00,-24.00
1575.00,95.00,-4174.00,41.00,12.00,-54.00
1582.00,72.00,-4188.00,44.00,5.00,-45.00
1602.00,79.00,-4178.00,23.00,3.00,-36.00
1572.00,71.00,-4192.00,41.00,1.00,-30.00
1578.00,55.00,-4184.00,44.00,16.00,-27.00
1581.00,84.00,-4268.00,42.00,4.00,-21.00
1543.00,87.00,-4205.00,40.00,-2.00,-38.00
1588.00,72.00,-4190.00,31.00,4.00,-40.00
1577.00,88.00,-4179.00,49.00,10.00,-25.00
1573.00,95.00,-4204.00,45.00,-3.00,-22.00
1564.00,69.00,-4152.00,36.00,11.00,-23.00
1608.00,106.00,-4164.00,41.00,6.00,-29.00
1609.00,72.00,-4177.00,39.00,10.00,-20.00
1579.00,72.00,-4145.00,29.00,6.00,-27.00
1569.00,102.00,-4214.00,45.00,6.00,-29.00
1568.00,81.00,-4187.00,41.00,-2.00,-34.00
1574.00,86.00,-4218.00,40.00,10.00,-29.00
1588.00,108.00,-4180.00,42.00,-8.00,-23.00
1559.00,88.00,-4193.00,43.00,4.00,-33.00
1565.00,92.00,-4181.00,41.00,7.00,-35.00
1593.00,86.00,-4193.00,57.00,-5.00,-37.00
1593.00,111.00,-4200.00,18.00,5.00,-37.00
1569.00,83.00,-4205.00,31.00,14.00,-33.00
1586.00,83.00,-4172.00,32.00,5.00,-43.00
1570.00,94.00,-4178.00,36.00,12.00,-37.00
1579.00,84.00,-4200.00,47.00,10.00,-28.00
1574.00,104.00,-4194.00,34.00,-3.00,-26.00
1582.00,88.00,-4214.00,33.00,5.00,-34.00
1573.00,102.00,-4156.00,38.00,7.00,-31.00
1592.00,80.00,-4202.00,35.00,9.00,-42.00
1601.00,74.00,-4186.00,46.00,-1.00,-21.00
1561.00,82.00,-4213.00,37.00,-3.00,-22.00
1568.00,85.00,-4210.00,38.00,11.00,-38.00
1563.00,89.00,-4236.00,30.00,3.00,-27.00
1591.00,81.00,-4204.00,39.00,3.00,-22.00
1579.00,89.00,-4211.00,30.00,0.00,-25.00
1573.00,80.00,-4188.00,47.00,10.00,-36.00
1591.00,83.00,-4184.00,35.00,1.00,-43.00
1586.00,89.00,-4221.00,23.00,11.00,-37.00
1575.00,89.00,-4188.00,31.00,2.00,-12.00
1589.00,103.00,-4190.00,39.00,-4.00,-27.00
1589.00,67.00,-4175.00,38.00,-4.00,-41.00
1568.00,83.00,-4193.00,29.00,4.00,-35.00
1590.00,86.00,-4168.00,40.00,-1.00,-37.00
1589.00,102.00,-4175.00,31.00,2.00,-39.00
1591.00,79.00,-4221.00,35.00,4.00,-23.00
1573.00,77.00,-4221.00,37.00,3.00,-18.00
1562.00,105.00,-4184.00,40.00,14.00,-20.00
1584.00,61.00,-4183.00,35.00,1.00,-23.00
1565.00,74.00,-4184.00,43.00,9.00,-28.00
1570.00,88.00,-4223.00,35.00,2.00,-30.00
1583.00,88.00,-4186.00,35.00,4.00,-26.00
1574.00,117.00,-4191.00,33.00,-3.00,-37.00
1563.00,76.00,-4182.00,33.00,15.00,-29.00
1614.00,106.00,-4166.00,45.00,12.00,-35.00
1573.00,94.00,-4183.00,40.00,0.00,-28.00
1574.00,71.00,-4165.00,30.00,11.00,-30.00
1574.00,72.00,-4175.00,36.00,8.00,-28.00
1599.00,87.00,-4173.00,27.00,-1.00,-29.00
1600.00,90.00,-4230.00,41.00,10.00,-27.00
1576.00,96.00,-4196.00,29.00,4.00,-38.00
1551.00,85.00,-4173.00,43.00,3.00,-29.00
1592.00,74.00,-4183.00,25.00,3.00,-33.00
1576.00,80.00,-4181.00,46.00,4.00,-35.00
1561.00,83.00,-4181.00,46.00,-6.00,-35.00
1566.00,93.00,-4188.00,41.00,-1.00,-28.00
1571.00,83.00,-4199.00,29.00,4.00,-31.00
1594.00,80.00,-4201.00,32.00,7.00,-27.00
1558.00,107.00,-4232.00,29.00,9.00,-28.00
1566.00,67.00,-4219.00,36.00,6.00,-18.00
1583.00,71.00,-4212.00,40.00,6.00,-29.00
1576.00,66.00,-4204.00,40.00,-1.00,-31.00
1592.00,73.00,-4198.00,37.00,-7.00,-30.00
1602.00,70.00,-4181.00,39.00,7.00,-34.00
1587.00,75.00,-4181.00,29.00,2.00,-37.00
1582.00,48.00,-4200.00,54.00,-3.00,-22.00
1582.00,69.00,-4180.00,42.00,-1.00,-32.00
1599.00,75.00,-4206.00,30.00,1.00,-40.00
1588.00,111.00,-4192.00,41.00,6.00,-28.00
1585.00,96.00,-4192.00,48.00,-6.00,-27.00
1578.00,98.00,-4177.00,37.00,-2.00,-31.00
1571.00,80.00,-4189.00,30.00,0.00,-36.00
1583.00,86.00,-4195.00,36.00,8.00,-23.00
1584.00,80.00,-4181.00,35.00,7.00,-28.00
1559.00,95.00,-4201.00,45.00,7.00,-37.00
1587.00,89.00,-4190.00,37.00,-3.00,-39.00
1568.00,49.00,-4160.00,34.00,-3.00,-36.00
1596.00,69.00,-4210.00,38.00,2.00,-22.00
1556.00,88.00,-4198.00,31.00,-2.00,-27.00
1594.00,89.00,-4166.00,46.00,8.00,-30.00
1558.00,63.00,-4192.00,27.00,3.00,-17.00
1578.00,92.00,-4183.00,46.00,2.00,-32.00
1579.00,83.00,-4170.00,41.00,8.00,-36.00
1589.00,85.00,-4168.00,35.00,-6.00,-33.00
1581.00,76.00,-4215.00,28.00,7.00,-29.00
1564.00,65.00,-4177.00,34.00,10.00,-32.00
1584.00,67.00,-4179.00,34.00,16.00,-22.00
1582.00,85.00,-4169.00,34.00,10.00,-20.00
1579.00,104.00,-4227.00,39.00,-2.00,-36.00
1589.00,79.00,-4198.00,32.00,11.00,-27.00
1586.00,96.00,-4190.00,38.00,7.00,-34.00
1581.00,92.00,-4178.00,40.00,3.00,-39.00
1581.00,80.00,-4172.00,42.00,7.00,-26.00
1561.00,87.00,-4199.00,37.00,-3.00,-16.00
1575.00,95.00,-4180.00,25.00,5.00,-27.00
1571.00,65.00,-4182.00,36.00,-1.00,-32.00
1582.00,92.00,-4176.00,46.00,10.00,-26.00
1577.00,88.00,-4180.00,33.00,5.00,-29.00
1575.00,83.00,-4203.00,42.00,9.00,-28.00
1580.00,85.00,-4185.00,35.00,7.00,-33.00
1585.00,56.00,-4156.00,31.00,-1.00,-28.00
1581.00,91.00,-4197.00,38.00,0.00,-30.00
1589.00,118.00,-4212.00,38.00,-2.00,-32.00
1582.00,111.00,-4192.00,41.00,2.00,-38.00
1583.00,86.00,-4171.00,31.00,4.00,-34.00
1574.00,80.00,-4219.00,42.00,2.00,-23.00
1582.00,93.00,-4185.00,28.00,6.00,-22.00
1575.00,95.00,-4173.00,28.00,11.00,-28.00
1565.00,77.00,-4183.00,27.00,2.00,-37.00
1583.00,106.00,-4182.00,26.00,7.00,-18.00
1594.00,89.00,-4212.00,28.00,1.00,-30.00
1602.00,80.00,-4201.00,32.00,6.00,-34.00
1563.00,80.00,-4147.00,35.00,-1.00,-36.00
1581.00,108.00,-4236.00,19.00,16.00,-21.00
1596.00,88.00,-4157.00,43.00,13.00,-28.00
1534.00,60.00,-4156.00,26.00,-9.00,-39.00
1580.00,81.00,-4199.00,46.00,21.00,-21.00
1648.00,110.00,-4228.00,31.00,-7.00,-32.00
1546.00,50.00,-4173.00,40.00,-10.00,-24.00
1584.00,87.00,-4164.00,11.00,24.00,-22.00
1614.00,105.00,-4233.00,30.00,19.00,-37.00
1576.00,90.00,-4183.00,38.00,-8.00,-17.00
1560.00,91.00,-4155.00,47.00,8.00,-27.00
1600.00,80.00,-4178.00,28.00,12.00,-34.00
1598.00,90.00,-4232.00,42.00,-5.00,-21.00
1559.00,64.00,-4171.00,41.00,9.00,-29.00
1571.00,83.00,-4178.00,34.00,17.00,-27.00
1596.00,97.00,-4211.00,40.00,14.00,-19.00
1571.00,56.00,-4168.00,38.00,3.00,-35.00
1592.00,84.00,-4190.00,38.00,10.00,-32.00
1564.00,103.00,-4175.00,49.00,7.00,-35.00
1600.00,80.00,-4202.00,43.00,1.00,-29.00
1576.00,85.00,-4185.00,38.00,3.00,-33.00
1583.00,66.00,-4188.00,39.00,3.00,-36.00
1579.00,77.00,-4212.00,38.00,-2.00,-28.00
1586.00,88.00,-4210.00,35.00,1.00,-31.00
1558.00,91.00,-4182.00,45.00,5.00,-36.00
1560.00,80.00,-4180.00,37.00,12.00,-33.00
1610.00,86.00,-4189.00,36.00,5.00,-25.00
1561.00,81.00,-4175.00,36.00,8.00,-21.00
1555.00,92.00,-4190.00,38.00,12.00,-33.00
1606.00,86.00,-4198.00,42.00,8.00,-27.00
1585.00,95.00,-4177.00,34.00,-13.00,-31.00
1600.00,63.00,-4175.00,37.00,7.00,-38.00
1612.00,68.00,-4222.00,35.00,2.00,-40.00
1587.00,76.00,-4227.00,35.00,19.00,-28.00
1588.00,70.00,-4190.00,43.00,2.00,-36.00
1573.00,96.00,-4179.00,40.00,6.00,-24.00
1587.00,90.00,-4209.00,34.00,13.00,-31.00
1588.00,70.00,-4223.00,36.00,9.00,-30.00
1566.00,55.00,-4175.00,37.00,5.00,-33.00
1584.00,88.00,-4225.00,31.00,12.00,-39.00
1595.00,92.00,-4189.00,31.00,-2.00,-33.00
1575.00,71.00,-4186.00,44.00,-1.00,-35.00
1572.00,46.00,-4176.00,46.00,-2.00,-20.00
1581.00,89.00,-4202.00,32.00,-2.00,-28.00
1568.00,102.00,-4192.00,36.00,3.00,-39.00
1582.00,91.00,-4162.00,38.00,4.00,-28.00
1585.00,73.00,-4175.00,34.00,11.00,-31.00
1581.00,72.00,-4160.00,34.00,-9.00,-33.00
1571.00,73.00,-4173.00,33.00,3.00,-29.00
1590.00,122.00,-4187.00,37.00,2.00,-28.00
1557.00,75.00,-4168.00,21.00,0.00,-36.00
1566.00,87.00,-4206.00,42.00,9.00,-36.00
1563.00,89.00,-4214.00,33.00,1.00,-33.00
1578.00,74.00,-4191.00,35.00,11.00,-41.00
1586.00,69.00,-4198.00,38.00,15.00,-17.00
1599.00,92.00,-4191.00,49.00,13.00,-30.00
1566.00,91.00,-4184.00,39.00,1.00,-32.00
1578.00,107.00,-4186.00,26.00,6.00,-31.00
1560.00,85.00,-4204.00,48.00,11.00,-26.00
1573.00,108.00,-4192.00,47.00,-4.00,-36.00
1588.00,78.00,-4199.00,40.00,8.00,-30.00
1568.00,93.00,-4173.00,31.00,9.00,-30.00
1551.00,70.00,-4208.00,34.00,5.00,-26.00
1590.00,78.00,-4215.00,32.00,4.00,-18.00
1595.00,81.00,-4163.00,43.00,4.00,-31.00
1597.00,98.00,-4184.00,30.00,1.00,-34.00
1597.00,106.00,-4174.00,37.00,5.00,-27.00
1578.00,91.00,-4187.00,27.00,5.00,-24.00
1585.00,97.00,-4205.00,41.00,-1.00,-32.00
1591.00,77.00,-4200.00,43.00,13.00,-30.00
1562.00,85.00,-4167.00,47.00,3.00,-32.00
1582.00,82.00,-4215.00,37.00,3.00,-37.00
1566.00,91.00,-4184.00,36.00,11.00,-36.00
1582.00,69.00,-4181.00,35.00,1.00,-31.00
1589.00,73.00,-4188.00,43.00,12.00,-26.00
1583.00,91.00,-4140.00,33.00,6.00,-24.00
1570.00,78.00,-4184.00,34.00,13.00,-42.00
1551.00,86.00,-4227.00,50.00,3.00,-32.00
1571.00,82.00,-4202.00,32.00,1.00,-24.00
1571.00,82.00,-4195.00,26.00,-3.00,-44.00
1566.00,83.00,-4166.00,34.00,4.00,-11.00
1584.00,85.00,-4192.00,29.00,6.00,-37.00
1588.00,92.00,-4203.00,47.00,7.00,-37.00
1609.00,84.00,-4207.00,40.00,1.00,-30.00
1604.00,72.00,-4188.00,49.00,14.00,-39.00
1565.00,72.00,-4204.00,28.00,2.00,-44.00
1567.00,99.00,-4194.00,36.00,14.00,-31.00
1567.00,78.00,-4182.00,41.00,4.00,-26.00
1571.00,99.00,-4166.00,33.00,8.00,-30.00
1564.00,87.00,-4172.00,43.00,6.00,-31.00
1611.00,101.00,-4203.00,32.00,-1.00,-14.00
1589.00,95.00,-4214.00,42.00,5.00,-30.00
1572.00,83.00,-4189.00,35.00,6.00,-32.00
1572.00,86.00,-4201.00,40.00,6.00,-22.00
1565.00,86.00,-4214.00,42.00,9.00,-31.00
1588.00,61.00,-4197.00,26.00,10.00,-32.00
1571.00,85.00,-4211.00,41.00,-1.00,-28.00
1569.00,93.00,-4191.00,42.00,10.00,-31.00
1575.00,67.00,-4184.00,40.00,13.00,-34.00
1589.00,94.00,-4196.00,28.00,11.00,-36.00
1575.00,82.00,-4205.00,32.00,10.00,-21.00
1568.00,100.00,-4191.00,41.00,3.00,-16.00
1607.00,96.00,-4162.00,20.00,1.00,-34.00
1578.00,70.00,-4214.00,38.00,7.00,-34.00
1568.00,77.00,-4187.00,43.00,11.00,-27.00
1588.00,95.00,-4183.00,34.00,-7.00,-39.00
1560.00,77.00,-4174.00,31.00,4.00,-41.00
1560.00,94.00,-4188.00,36.00,4.00,-22.00
1570.00,86.00,-4203.00,30.00,0.00,-29.00
1553.00,93.00,-4215.00,37.00,10.00,-36.00
1572.00,84.00,-4205.00,36.00,3.00,-36.00
1586.00,84.00,-4211.00,33.00,10.00,-21.00
1579.00,83.00,-4180.00,27.00,11.00,-20.00
1575.00,97.00,-4223.00,35.00,4.00,-20.00
1578.00,90.00,-4182.00,36.00,1.00,-33.00
1606.00,88.00,-4236.00,42.00,3.00,-23.00
1590.00,83.00,-4200.00,37.00,9.00,-39.00
1575.00,77.00,-4215.00,36.00,1.00,-31.00
1582.00,74.00,-4167.00,44.00,7.00,-34.00
1589.00,101.00,-4158.00,32.00,0.00,-41.00
1597.00,74.00,-4203.00,49.00,8.00,-32.00
1568.00,72.00,-4175.00,40.00,9.00,-28.00
1569.00,90.00,-4209.00,41.00,12.00,-28.00
1571.00,74.00,-4199.00,39.00,-5.00,-30.00
1582.00,81.00,-4193.00,38.00,-3.00,-29.00
1570.00,85.00,-4203.00,42.00,1.00,-25.00
1588.00,90.00,-4209.00,31.00,5.00,-23.00
1549.00,87.00,-4195.00,39.00,3.00,-32.00
1565.00,75.00,-4195.00,35.00,3.00,-33.00
1571.00,84.00,-4203.00,52.00,9.00,-32.00
1590.00,86.00,-4224.00,36.00,-3.00,-34.00
1574.00,80.00,-4181.00,47.00,1.00,-36.00
1591.00,89.00,-4194.00,32.00,3.00,-43.00
1602.00,87.00,-4235.00,32.00,4.00,-29.00
1589.00,85.00,-4198.00,36.00,8.00,-41.00
1570.00,87.00,-4213.00,24.00,12.00,-36.00
1573.00,81.00,-4195.00,33.00,-4.00,-24.00
1578.00,54.00,-4188.00,39.00,0.00,-38.00
1588.00,84.00,-4226.00,43.00,16.00,-32.00
1588.00,99.00,-4188.00,38.00,5.00,-26.00
1580.00,95.00,-4211.00,37.00,-6.00,-18.00
1569.00,76.00,-4203.00,38.00,-6.00,-36.00
1592.00,77.00,-4184.00,28.00,6.00,-39.00
1592.00,61.00,-4190.00,32.00,-1.00,-40.00
1573.00,66.00,-4201.00,23.00,-1.00,-23.00
1577.00,77.00,-4185.00,40.00,10.00,-21.00
1604.00,78.00,-4203.00,33.00,5.00,-35.00
1592.00,78.00,-4243.00,35.00,7.00,-21.00
1585.00,84.00,-4197.00,40.00,8.00,-40.00
1577.00,112.00,-4199.00,41.00,7.00,-27.00
1573.00,83.00,-4223.00,41.00,14.00,-29.00
1584.00,83.00,-4179.00,46.00,6.00,-31.00
1595.00,67.00,-4185.00,39.00,-4.00,-28.00
1572.00,69.00,-4186.00,41.00,8.00,-25.00
1574.00,69.00,-4195.00,46.00,7.00,-32.00
1592.00,86.00,-4198.00,40.00,5.00,-41.00
1578.00,77.00,-4172.00,41.00,4.00,-30.00
1576.00,88.00,-4203.00,45.00,6.00,-43.00
1562.00,95.00,-4198.00,49.00,9.00,-26.00
1564.00,68.00,-4179.00,39.00,8.00,-37.00
1576.00,99.00,-4183.00,34.00,11.00,-43.00
1551.00,72.00,-4179.00,29.00,1.00,-25.00
1599.00,72.00,-4155.00,41.00,3.00,-27.00
1583.00,95.00,-4193.00,33.00,3.00,-32.00
1563.00,72.00,-4162.00,29.00,2.00,-45.00
1586.00,92.00,-4198.00,32.00,4.00,-19.00
1599.00,56.00,-4163.00,37.00,11.00,-32.00
1588.00,98.00,-4216.00,41.00,7.00,-25.00
1582.00,79.00,-4164.00,45.00,12.00,-25.00
1588.00,78.00,-4226.00,38.00,7.00,-34.00
1579.00,58.00,-4193.00,36.00,9.00,-29.00
1570.00,74.00,-4212.00,42.00,12.00,-37.00
1584.00,111.00,-4203.00,42.00,5.00,-31.00
1575.00,75.00,-4201.00,36.00,3.00,-31.00
1562.00,106.00,-4201.00,34.00,1.00,-36.00
1561.00,93.00,-4205.00,36.00,7.00,-23.00
1551.00,91.00,-4193.00,39.00,5.00,-26.00
1578.00,114.00,-4221.00,41.00,4.00,-22.00
1578.00,91.00,-4188.00,36.00,11.00,-27.00
1580.00,60.00,-4188.00,38.00,-8.00,-25.00
1567.00,76.00,-4165.00,30.00,8.00,-38.00
1595.00,93.00,-4169.00,35.00,2.00,-37.00
1583.00,75.00,-4199.00,41.00,4.00,-32.00
1575.00,76.00,-4143.00,34.00,8.00,-42.00
1586.00,75.00,-4209.00,40.00,3.00,-29.00
1562.00,85.00,-4204.00,31.00,4.00,-39.00
1590.00,89.00,-4221.00,22.00,10.00,-31.00
1581.00,75.00,-4223.00,37.00,0.00,-23.00
1583.00,104.00,-4200.00,44.00,10.00,-22.00
1573.00,67.00,-4189.00,37.00,12.00,-29.00
1586.00,79.00,-4205.00,39.00,9.00,-29.00
1566.00,84.00,-4204.00,42.00,11.00,-20.00
1580.00,93.00,-4192.00,29.00,0.00,-28.00
1578.00,81.00,-4204.00,39.00,11.00,-28.00
1598.00,75.00,-4209.00,32.00,7.00,-20.00
1580.00,96.00,-4208.00,36.00,2.00,-27.00
1588.00,73.00,-4178.00,43.00,5.00,-33.00
1581.00,82.00,-4191.00,37.00,8.00,-33.00
1590.00,85.00,-4200.00,45.00,3.00,-34.00
1574.00,80.00,-4183.00,32.00,10.00,-27.00
1578.00,96.00,-4179.00,43.00,5.00,-26.00
1561.00,84.00,-4171.00,47.00,9.00,-30.00
1580.00,96.00,-4192.00,41.00,-2.00,-34.00
1601.00,91.00,-4199.00,48.00,1.00,-33.00
1568.00,79.00,-4207.00,42.00,-3.00,-23.00
1601.00,75.00,-4171.00,37.00,9.00,-24.00
1585.00,84.00,-4179.00,35.00,-1.00,-31.00
1589.00,98.00,-4195.00,32.00,2.00,-27.00
1576.00,97.00,-4187.00,29.00,9.00,-31.00
1582.00,94.00,-4190.00,45.00,5.00,-30.00
1579.00,101.00,-4211.00,47.00,3.00,-38.00
1562.00,85.00,-4188.00,29.00,-9.00,-30.00
1562.00,101.00,-4194.00,38.00,1.00,-32.00
1581.00,106.00,-4201.00,42.00,12.00,-19.00
1559.00,90.00,-4177.00,43.00,4.00,-34.00
1588.00,104.00,-4233.00,31.00,14.00,-23.00
1573.00,78.00,-4180.00,41.00,4.00,-22.00
1578.00,92.00,-4177.00,45.00,0.00,-20.00
1570.00,77.00,-4197.00,51.00,9.00,-24.00
1568.00,87.00,-4204.00,43.00,7.00,-37.00
1565.00,83.00,-4200.00,32.00,1.00,-44.00
1583.00,96.00,-4198.00,32.00,7.00,-20.00
1572.00,79.00,-4204.00,36.00,-10.00,-27.00
1570.00,77.00,-4185.00,38.00,-3.00,-29.00
1588.00,76.00,-4224.00,35.00,12.00,-32.00
1577.00,75.00,-4181.00,34.00,10.00,-26.00
1561.00,96.00,-4216.00,44.00,1.00,-35.00
1592.00,61.00,-4172.00,27.00,3.00,-29.00
1572.00,67.00,-4232.00,33.00,10.00,-33.00
1590.00,101.00,-4168.00,46.00,3.00,-33.00
1568.00,89.00,-4181.00,39.00,3.00,-30.00
1574.00,76.00,-4192.00,35.00,8.00,-28.00
1567.00,80.00,-4218.00,28.00,2.00,-32.00
1567.00,101.00,-4166.00,46.00,1.00,-29.00
1569.00,75.00,-4198.00,33.00,1.00,-34.00
1595.00,76.00,-4227.00,48.00,4.00,-31.00
1601.00,71.00,-4179.00,32.00,8.00,-34.00
1581.00,85.00,-4186.00,37.00,-4.00,-23.00
1597.00,71.00,-4192.00,43.00,7.00,-28.00
1571.00,88.00,-4186.00,40.00,8.00,-33.00
1563.00,96.00,-4222.00,24.00,9.00,-26.00
1583.00,89.00,-4164.00,41.00,10.00,-25.00
1580.00,100.00,-4223.00,34.00,6.00,-33.00
1587.00,89.00,-4176.00,39.00,-6.00,-42.00
1553.00,94.00,-4192.00,31.00,5.00,-33.00
1586.00,86.00,-4162.00,39.00,7.00,-28.00
1560.00,66.00,-4233.00,41.00,6.00,-26.00
1580.00,89.00,-4192.00,36.00,5.00,-53.00
1564.00,103.00,-4196.00,42.00,4.00,-25.00
1561.00,83.00,-4211.00,41.00,8.00,-34.00
1582.00,116.00,-4172.00,31.00,4.00,-22.00
1585.00,93.00,-4168.00,47.00,0.00,-33.00
1559.00,73.00,-4201.00,37.00,5.00,-26.00
1585.00,100.00,-4164.00,33.00,11.00,-24.00
1571.00,75.00,-4192.00,41.00,2.00,-25.00
1587.00,76.00,-4175.00,37.00,-3.00,-23.00
1580.00,86.00,-4222.00,36.00,7.00,-25.00
1585.00,68.00,-4189.00,38.00,4.00,-25.00
1578.00,78.00,-4186.00,43.00,5.00,-27.00
1570.00,87.00,-4159.00,26.00,0.00,-26.00
1583.00,88.00,-4179.00,30.00,8.00,-33.00
1574.00,67.00,-4175.00,38.00,10.00,-20.00
1561.00,96.00,-4205.00,47.00,5.00,-30.00
1573.00,86.00,-4175.00,31.00,6.00,-32.00
1578.00,80.00,-4196.00,34.00,6.00,-32.00
1564.00,78.00,-4203.00,33.00,4.00,-16.00
1580.00,92.00,-4162.00,46.00,8.00,-30.00
1556.00,107.00,-4191.00,38.00,4.00,-34.00
1573.00,85.00,-4185.00,37.00,9.00,-27.00
1585.00,73.00,-4197.00,41.00,2.00,-29.00
1588.00,89.00,-4177.00,28.00,18.00,-37.00
1578.00,86.00,-4194.00,50.00,-5.00,-42.00
1600.00,82.00,-4190.00,33.00,-5.00,-31.00
1589.00,83.00,-4203.00,38.00,11.00,-34.00
1580.00,79.00,-4179.00,32.00,14.00,-38.00
1556.00,95.00,-4208.00,46.00,6.00,-24.00
1571.00,77.00,-4172.00,36.00,13.00,-20.00
1589.00,90.00,-4182.00,42.00,4.00,-40.00
1571.00,62.00,-4176.00,27.00,4.00,-28.00
1608.00,88.00,-4196.00,33.00,0.00,-30.00
1591.00,84.00,-4179.00,43.00,4.00,-35.00
1571.00,92.00,-4194.00,27.00,5.00,-25.00
1567.00,92.00,-4226.00,39.00,15.00,-28.00
1585.00,79.00,-4202.00,41.00,7.00,-39.00
1564.00,89.00,-4184.00,37.00,-1.00,-35.00
1563.00,82.00,-4182.00,32.00,10.00,-29.00
1570.00,106.00,-4175.00,34.00,-6.00,-25.00
1585.00,75.00,-4197.00,36.00,4.00,-34.00
1571.00,78.00,-4214.00,40.00,15.00,-32.00
1576.00,81.00,-4227.00,42.00,8.00,-23.00
1563.00,98.00,-4206.00,32.00,13.00,-33.00
1580.00,99.00,-4221.00,27.00,3.00,-35.00
1573.00,84.00,-4177.00,37.00,0.00,-23.00
1537.00,70.00,-4174.00,35.00,9.00,-32.00
1584.00,67.00,-4200.00,36.00,8.00,-33.00
1577.00,77.00,-4188.00,34.00,6.00,-33.00
1590.00,97.00,-4147.00,32.00,8.00,-29.00
1590.00,84.00,-4214.00,36.00,21.00,-32.00
1572.00,87.00,-4215.00,35.00,10.00,-35.00
1597.00,90.00,-4204.00,39.00,9.00,-37.00
1571.00,66.00,-4216.00,34.00,7.00,-17.00
1572.00,72.00,-4147.00,42.00,6.00,-26.00
1591.00,85.00,-4177.00,34.00,-1.00,-32.00
1561.00,95.00,-4165.00,39.00,13.00,-23.00
1560.00,80.00,-4201.00,37.00,12.00,-36.00
1576.00,105.00,-4212.00,34.00,13.00,-21.00
1563.00,97.00,-4182.00,25.00,-2.00,-16.00
1559.00,76.00,-4193.00,46.00,9.00,-29.00
1569.00,87.00,-4199.00,34.00,3.00,-29.00
1572.00,66.00,-4197.00,38.00,6.00,-35.00
1574.00,94.00,-4227.00,34.00,-7.00,-35.00
1586.00,66.00,-4206.00,40.00,3.00,-37.00
1549.00,78.00,-4198.00,39.00,11.00,-23.00
1565.00,68.00,-4176.00,46.00,7.00,-37.00
1561.00,93.00,-4202.00,32.00,2.00,-25.00
1587.00,72.00,-4228.00,30.00,-9.00,-25.00
1577.00,92.00,-4184.00,39.00,9.00,-36.00
1578.00,81.00,-4206.00,29.00,9.00,-28.00
1583.00,72.00,-4185.00,27.00,-9.00,-26.00
1570.00,59.00,-4212.00,31.00,14.00,-26.00
1575.00,66.00,-4161.00,45.00,7.00,-24.00
1583.00,85.00,-4222.00,38.00,-4.00,-14.00
1569.00,83.00,-4171.00,35.00,8.00,-35.00
1577.00,84.00,-4177.00,47.00,11.00,-18.00
1587.00,76.00,-4183.00,36.00,4.00,-27.00
1594.00,76.00,-4218.00,37.00,-1.00,-21.00
1604.00,109.00,-4240.00,40.00,11.00,-34.00
1544.00,69.00,-4214.00,34.00,12.00,-31.00
1584.00,90.00,-4181.00,33.00,6.00,-26.00
1592.00,98.00,-4187.00,55.00,6.00,-25.00
1554.00,95.00,-4180.00,36.00,1.00,-29.00
1592.00,52.00,-4200.00,42.00,3.00,-33.00
1582.00,96.00,-4185.00,37.00,6.00,-34.00
1583.00,91.00,-4216.00,31.00,13.00,-31.00
1597.00,89.00,-4177.00,44.00,4.00,-26.00
1590.00,81.00,-4190.00,37.00,6.00,-35.00
1591.00,78.00,-4228.00,38.00,4.00,-25.00
1597.00,88.00,-4191.00,28.00,-9.00,-31.00
1574.00,80.00,-4163.00,33.00,-4.00,-25.00
1589.00,96.00,-4232.00,41.00,4.00,-22.00
1588.00,77.00,-4192.00,42.00,-1.00,-22.00
1560.00,60.00,-4221.00,45.00,4.00,-29.00
1557.00,83.00,-4242.00,42.00,-2.00,-29.00
1577.00,88.00,-4166.00,42.00,7.00,-39.00
1591.00,78.00,-4202.00,43.00,-8.00,-28.00
1585.00,64.00,-4211.00,39.00,-1.00,-29.00
1593.00,78.00,-4207.00,43.00,5.00,-38.00
1564.00,93.00,-4218.00,30.00,4.00,-39.00
1575.00,95.00,-4157.00,39.00,7.00,-32.00
1601.00,104.00,-4175.00,36.00,20.00,-20.00
1599.00,75.00,-4206.00,45.00,13.00,-29.00
1574.00,93.00,-4186.00,25.00,4.00,-25.00
1585.00,88.00,-4164.00,24.00,-2.00,-34.00
1584.00,84.00,-4224.00,33.00,5.00,-29.00
1561.00,69.00,-4208.00,35.00,5.00,-19.00
1589.00,71.00,-4164.00,50.00,-3.00,-25.00
1581.00,63.00,-4204.00,37.00,14.00,-29.00
1600.00,110.00,-4181.00,26.00,15.00,-27.00
1568.00,97.00,-4203.00,44.00,14.00,-28.00
1563.00,101.00,-4141.00,40.00,-1.00,-24.00
1584.00,91.00,-4201.00,32.00,6.00,-26.00
1572.00,87.00,-4213.00,42.00,12.00,-17.00
1593.00,78.00,-4183.00,26.00,0.00,-40.00
1573.00,90.00,-4212.00,27.00,2.00,-28.00
1582.00,91.00,-4179.00,32.00,4.00,-33.00
1592.00,103.00,-4177.00,37.00,0.00,-28.00
1587.00,83.00,-4225.00,32.00,5.00,-27.00
1592.00,82.00,-4179.00,41.00,9.00,-34.00
1569.00,85.00,-4194.00,43.00,5.00,-34.00
1608.00,80.00,-4174.00,42.00,0.00,-31.00
1579.00,85.00,-4173.00,33.00,-4.00,-29.00
1568.00,80.00,-4181.00,37.00,2.00,-21.00
1590.00,62.00,-4198.00,40.00,1.00,-22.00
1607.00,76.00,-4201.00,40.00,-3.00,-28.00
1572.00,75.00,-4212.00,47.00,11.00,-25.00
1578.00,70.00,-4173.00,42.00,8.00,-18.00
1585.00,99.00,-4171.00,36.00,3.00,-34.00
1570.00,63.00,-4198.00,40.00,5.00,-32.00
1577.00,86.00,-4189.00,30.00,15.00,-27.00
1609.00,74.00,-4175.00,32.00,8.00,-30.00
1574.00,88.00,-4195.00,34.00,1.00,-40.00
1567.00,66.00,-4200.00,39.00,4.00,-26.00
1577.00,104.00,-4196.00,37.00,16.00,-29.00
1587.00,98.00,-4178.00,34.00,-1.00,-28.00
1586.00,54.00,-4185.00,26.00,4.00,-37.00
1594.00,113.00,-4214.00,35.00,14.00,-32.00
1576.00,102.00,-4180.00,42.00,9.00,-36.00
1572.00,80.00,-4176.00,36.00,3.00,-28.00
1569.00,82.00,-4190.00,28.00,10.00,-33.00
1597.00,89.00,-4222.00,35.00,4.00,-39.00
1582.00,98.00,-4223.00,49.00,-7.00,-24.00
1552.00,90.00,-4190.00,36.00,6.00,-38.00
1561.00,104.00,-4193.00,42.00,3.00,-33.00
1595.00,101.00,-4197.00,41.00,11.00,-41.00
1592.00,89.00,-4191.00,43.00,-1.00,-24.00
1561.00,84.00,-4201.00,33.00,4.00,-35.00
1581.00,85.00,-4202.00,35.00,12.00,-31.00
1579.00,90.00,-4195.00,40.00,13.00,-25.00
1566.00,79.00,-4190.00,32.00,-4.00,-17.00
1553.00,92.00,-4178.00,29.00,8.00,-37.00
1588.00,99.00,-4188.00,30.00,2.00,-27.00
1591.00,93.00,-4193.00,40.00,6.00,-24.00
1596.00,114.00,-4203.00,42.00,9.00,-26.00
1600.00,98.00,-4197.00,44.00,7.00,-25.00
1562.00,65.00,-4231.00,38.00,-8.00,-28.00
1585.00,66.00,-4171.00,34.00,5.00,-32.00
1590.00,77.00,-4220.00,43.00,14.00,-32.00
1576.00,79.00,-4204.00,39.00,1.00,-24.00
1549.00,71.00,-4166.00,28.00,3.00,-29.00
1566.00,74.00,-4162.00,28.00,10.00,-25.00
1584.00,72.00,-4185.00,40.00,16.00,-28.00
1559.00,66.00,-4189.00,44.00,-5.00,-28.00
1585.00,65.00,-4202.00,35.00,4.00,-33.00
1598.00,67.00,-4208.00,42.00,2.00,-31.00
1599.00,77.00,-4204.00,33.00,1.00,-31.00
1574.00,89.00,-4192.00,45.00,7.00,-22.00
1568.00,96.00,-4203.00,28.00,-3.00,-22.00
1568.00,100.00,-4201.00,24.00,3.00,-40.00
1566.00,101.00,-4230.00,23.00,-10.00,-20.00
1598.00,123.00,-4175.00,12.00,-38.00,-23.00
1633.00,81.00,-4133.00,53.00,-14.00,-43.00
1552.00,52.00,-4154.00,36.00,-8.00,-40.00
1524.00,77.00,-4227.00,42.00,16.00,-22.00
1613.00,113.00,-4257.00,39.00,0.00,-35.00
1496.00,113.00,-4213.00,59.00,-76.00,-25.00
1536.00,83.00,-4199.00,47.00,-35.00,-28.00
1443.00,46.00,-4947.00,67.00,101.00,-71.00
1392.00,78.00,-4252.00,26.00,-57.00,61.00
1112.00,0.00,-3951.00,-223.00,-348.00,-107.00
596.00,-144.00,-4088.00,366.00,-155.00,-39.00
1077.00,113.00,-4533.00,298.00,258.00,-84.00
1328.00,272.00,-4436.00,-262.00,-90.00,-224.00
1235.00,92.00,-4223.00,28.00,84.00,-415.00
1438.00,237.00,-4256.00,274.00,37.00,-319.00
1386.00,350.00,-4192.00,287.00,91.00,-468.00
1651.00,292.00,-4351.00,193.00,52.00,-625.00
1718.00,113.00,-4074.00,88.00,-206.00,-829.00
1089.00,41.00,-4215.00,426.00,-119.00,-640.00
1176.00,-156.00,-4391.00,409.00,57.00,-838.00
1369.00,-211.00,-4199.00,347.00,-84.00,-833.00
1378.00,-229.00,-3915.00,211.00,-13.00,-768.00
1374.00,-237.00,-4429.00,374.00,-44.00,-771.00
1129.00,-51.00,-4422.00,371.00,-78.00,-535.00
1036.00,134.00,-3830.00,-8.00,-202.00,-695.00
1426.00,219.00,-4287.00,98.00,-8.00,-660.00
1278.00,343.00,-4022.00,409.00,-292.00,-489.00
1327.00,233.00,-4166.00,477.00,-411.00,-354.00
862.00,245.00,-3977.00,69.00,-358.00,-506.00
1601.00,214.00,-3965.00,510.00,-307.00,-221.00
1941.00,261.00,-4375.00,385.00,-309.00,-200.00
1846.00,-47.00,-4930.00,85.00,-252.00,-143.00
1156.00,-446.00,-4525.00,181.00,-67.00,57.00
1313.00,-148.00,-4301.00,-130.00,-259.00,239.00
1335.00,-380.00,-4108.00,-18.00,-144.00,358.00
1424.00,99.00,-4532.00,-96.00,59.00,494.00
1395.00,-241.00,-4238.00,-40.00,20.00,537.00
1179.00,61.00,-4023.00,-70.00,-212.00,334.00
883.00,717.00,-4297.00,-701.00,-12.00,216.00
1205.00,214.00,-3672.00,-570.00,-266.00,-40.00
1618.00,310.00,-4062.00,-492.00,-808.00,143.00
1967.00,547.00,-3213.00,609.00,-1832.00,-255.00
1052.00,616.00,-3907.00,545.00,-2013.00,9.00
1849.00,-340.00,-3737.00,150.00,-2163.00,-699.00
1597.00,-323.00,-2858.00,-957.00,-2936.00,-871.00
1412.00,889.00,-3262.00,5.00,-3648.00,-356.00
1863.00,-430.00,-3944.00,1112.00,-4236.00,-567.00
1270.00,74.00,-3192.00,-568.00,-5259.00,-606.00
906.00,-196.00,-3071.00,-135.00,-5956.00,-291.00
1582.00,331.00,-4093.00,-62.00,-5480.00,-181.00
2048.00,216.00,-3540.00,-41.00,-6672.00,-294.00
1673.00,24.00,-3934.00,-585.00,-7079.00,-38.00
1871.00,-24.00,-3889.00,-331.00,-7193.00,15.00
1746.00,104.00,-4132.00,-141.00,-7981.00,231.00
1500.00,133.00,-4055.00,-385.00,-8400.00,354.00
1422.00,268.00,-4096.00,-448.00,-8790.00,453.00
1281.00,340.00,-4037.00,-356.00,-9289.00,537.00
943.00,370.00,-4053.00,-316.00,-9620.00,512.00
836.00,292.00,-3975.00,-296.00,-9522.00,422.00
749.00,309.00,-3965.00,-142.00,-9759.00,498.00
614.00,240.00,-4073.00,-50.00,-9723.00,539.00
796.00,233.00,-4402.00,101.00,-9525.00,570.00
926.00,264.00,-4781.00,419.00,-9360.00,615.00
-16074.00,5148.00,-31464.00,-8079.00,-1514.00,-209.00
12420.00,4528.00,-3086.00,-11746.00,-6427.00,-932.00
-11591.00,711.00,2198.00,1669.00,10617.00,141.00
3216.00,869.00,-6989.00,-939.00,5203.00,647.00
3790.00,-749.00,-3218.00,-317.00,178.00,1754.00
-802.00,699.00,-6813.00,696.00,3177.00,401.00
1599.00,-26.00,-3626.00,-74.00,2101.00,-168.00
949.00,266.00,-3833.00,461.00,-131.00,305.00
-235.00,61.00,-4808.00,1090.00,103.00,-477.00
451.00,-150.00,-3528.00,454.00,163.00,-767.00
505.00,83.00,-4595.00,974.00,-878.00,-971.00
346.00,-55.00,-3996.00,1237.00,-1275.00,-1344.00
645.00,-145.00,-3871.00,1130.00,-1721.00,-1362.00
673.00,-101.00,-3989.00,1294.00,-2951.00,-1295.00
-5409.00,-3188.00,-10475.00,442.00,-769.00,-2212.00
2647.00,543.00,-6723.00,-2500.00,479.00,-1151.00
3636.00,-789.00,1523.00,-1691.00,-1220.00,-1301.00
-2520.00,3387.00,-10490.00,1713.00,1490.00,548.00
378.00,-269.00,-6125.00,1150.00,1010.00,-2122.00
653.00,-358.00,-4063.00,-269.00,197.00,-1436.00
-904.00,-554.00,-4484.00,44.00,56.00,-1690.00
-549.00,145.00,-3218.00,-117.00,450.00,-1493.00
244.00,-372.00,-4612.00,590.00,312.00,-1333.00
428.00,-132.00,-4493.00,6.00,300.00,-1036.00
62.00,464.00,-4832.00,-772.00,299.00,-1006.00
472.00,88.00,-4525.00,657.00,290.00,-886.00
83.00,480.00,-4436.00,447.00,385.00,-937.00
-250.00,432.00,-4305.00,-515.00,486.00,-879.00
133.00,203.00,-4342.00,-71.00,942.00,-738.00
144.00,432.00,-4923.00,444.00,1096.00,-685.00
259.00,385.00,-4316.00,-78.00,333.00,-485.00
218.00,-27.00,-4685.00,152.00,253.00,-218.00
66.00,140.00,-4473.00,-145.00,476.00,-349.00
191.00,53.00,-4458.00,64.00,234.00,-327.00
-64.00,62.00,-4479.00,86.00,187.00,-265.00
85.00,47.00,-4479.00,-138.00,386.00,-279.00
329.00,22.00,-4475.00,37.00,232.00,-203.00
237.00,96.00,-4661.00,75.00,-81.00,-51.00
165.00,9.00,-4533.00,34.00,-3.00,-52.00
244.00,-111.00,-4349.00,51.00,38.00,-17.00
113.00,111.00,-4356.00,-119.00,78.00,115.00
66.00,225.00,-4463.00,-63.00,87.00,108.00
268.00,201.00,-4521.00,68.00,114.00,96.00
202.00,147.00,-4493.00,45.00,184.00,-68.00
281.00,171.00,-4458.00,-48.00,161.00,-57.00
305.00,164.00,-4478.00,86.00,-156.00,-3.00
178.00,131.00,-4230.00,-11.00,-233.00,88.00
226.00,18.00,-4696.00,30.00,-472.00,242.00
183.00,11.00,-4360.00,-28.00,-245.00,97.00
172.00,130.00,-4438.00,81.00,21.00,64.00
-20.00,-104.00,-4543.00,154.00,-176.00,50.00
-445.00,-239.00,-4485.00,-181.00,-537.00,188.00
-605.00,90.00,-4638.00,-169.00,-232.00,528.00
-94.00,-33.00,-4052.00,223.00,-197.00,500.00
-71.00,195.00,-3958.00,-96.00,-79.00,739.00
88.00,198.00,-4724.00,49.00,20.00,742.00
189.00,130.00,-4536.00,263.00,77.00,817.00
449.00,241.00,-4598.00,74.00,-32.00,792.00
448.00,174.00,-4532.00,-19.00,-226.00,695.00
353.00,178.00,-4309.00,-182.00,-215.00,719.00
351.00,283.00,-4335.00,70.00,94.00,618.00
456.00,369.00,-4430.00,138.00,31.00,556.00
444.00,447.00,-4343.00,-14.00,-150.00,432.00
320.00,259.00,-4591.00,-20.00,-141.00,234.00
417.00,-53.00,-4225.00,207.00,-276.00,277.00
112.00,294.00,-4315.00,-41.00,-464.00,305.00
300.00,137.00,-4463.00,45.00,-263.00,301.00
215.00,161.00,-4381.00,-90.00,-127.00,239.00
271.00,194.00,-4594.00,-112.00,-299.00,308.00
195.00,224.00,-4429.00,-57.00,-318.00,280.00
286.00,272.00,-4364.00,-45.00,-173.00,225.00
305.00,68.00,-4379.00,57.00,-26.00,116.00
545.00,-228.00,-4618.00,107.00,39.00,192.00
249.00,86.00,-4558.00,-43.00,-186.00,488.00
250.00,227.00,-4112.00,-66.00,-423.00,427.00
-24.00,172.00,-4471.00,-251.00,-317.00,461.00
28.00,272.00,-4338.00,-115.00,-471.00,453.00
87.00,119.00,-4410.00,3.00,-424.00,266.00
19.00,108.00,-4747.00,17.00,-132.00,325.00
363.00,172.00,-4122.00,56.00,-467.00,298.00
57.00,225.00,-4748.00,36.00,-562.00,397.00
509.00,278.00,-4299.00,-60.00,-554.00,270.00
380.00,114.00,-4721.00,-65.00,-341.00,185.00
450.00,120.00,-4426.00,-67.00,-525.00,200.00
245.00,126.00,-4616.00,66.00,-772.00,229.00
339.00,194.00,-4356.00,-26.00,-1098.00,197.00
77.00,302.00,-4292.00,-146.00,-1335.00,270.00
-201.00,166.00,-4194.00,-21.00,-1430.00,180.00
-230.00,183.00,-4502.00,22.00,-708.00,77.00
64.00,409.00,-4421.00,71.00,104.00,99.00
112.00,296.00,-4335.00,69.00,371.00,-197.00
362.00,156.00,-4602.00,0.00,97.00,-304.00
84.00,190.00,-4345.00,-33.00,-512.00,-83.00
47.00,130.00,-4496.00,44.00,-432.00,13.00
100.00,84.00,-4477.00,176.00,-342.00,-185.00
157.00,-42.00,-4512.00,159.00,-81.00,-288.00
187.00,-59.00,-4492.00,8.00,-99.00,-138.00
198.00,122.00,-4538.00,-69.00,-261.00,75.00
33.00,190.00,-4485.00,61.00,-557.00,32.00
36.00,165.00,-4458.00,133.00,-643.00,-85.00
120.00,165.00,-4401.00,51.00,-434.00,-79.00
95.00,160.00,-4480.00,48.00,-317.00,-80.00
92.00,213.00,-4393.00,68.00,-391.00,-54.00
15.00,183.00,-4464.00,67.00,-416.00,-33.00
78.00,182.00,-4425.00,85.00,-423.00,-134.00
-52.00,121.00,-4361.00,34.00,-469.00,-134.00
-15.00,214.00,-4361.00,0.00,-345.00,-48.00
38.00,126.00,-4404.00,65.00,-116.00,-97.00
47.00,108.00,-4358.00,100.00,-82.00,0.00
-61.00,12.00,-4456.00,69.00,-150.00,47.00
-21.00,67.00,-4441.00,95.00,-208.00,118.00
17.00,136.00,-4476.00,81.00,-36.00,169.00
210.00,-202.00,-4991.00,88.00,152.00,44.00
281.00,20.00,-4583.00,157.00,-188.00,81.00
8.00,113.00,-4509.00,138.00,-292.00,228.00
-54.00,204.00,-4055.00,153.00,-423.00,143.00
-273.00,67.00,-4408.00,75.00,-70.00,23.00
-111.00,141.00,-4380.00,-17.00,-47.00,129.00
-119.00,327.00,-4411.00,-82.00,-4.00,282.00
98.00,220.00,-4399.00,9.00,-122.00,151.00
10.00,172.00,-4498.00,103.00,258.00,-131.00
150.00,115.00,-4554.00,-36.00,310.00,35.00
198.00,253.00,-4412.00,18.00,-10.00,320.00
-17.00,180.00,-4502.00,72.00,-108.00,99.00
67.00,60.00,-4388.00,198.00,-85.00,94.00
56.00,162.00,-4492.00,-35.00,-104.00,47.00
36.00,175.00,-4473.00,17.00,9.00,-10.00
32.00,264.00,-4385.00,81.00,-8.00,-57.00
34.00,190.00,-4416.00,114.00,37.00,-56.00
105.00,237.00,-4480.00,51.00,-32.00,-110.00
58.00,157.00,-4520.00,33.00,-182.00,-205.00
86.00,187.00,-4420.00,114.00,-111.00,-249.00
-38.00,138.00,-4394.00,146.00,98.00,-323.00
-36.00,204.00,-4395.00,39.00,221.00,-174.00
23.00,211.00,-4426.00,48.00,470.00,-238.00
69.00,114.00,-4512.00,83.00,638.00,-519.00
-78.00,-38.00,-4565.00,247.00,604.00,-385.00
60.00,227.00,-4410.00,56.00,436.00,-263.00
52.00,170.00,-4451.00,122.00,311.00,-321.00
53.00,186.00,-4440.00,66.00,224.00,-369.00
120.00,136.00,-4495.00,1.00,118.00,-300.00
51.00,108.00,-4401.00,32.00,-95.00,-194.00
111.00,136.00,-4484.00,29.00,-58.00,-223.00
120.00,74.00,-4487.00,55.00,-62.00,-260.00
43.00,215.00,-4366.00,9.00,-231.00,-86.00
85.00,168.00,-4484.00,-37.00,-391.00,-82.00
0.00,129.00,-4401.00,77.00,-384.00,-121.00
4.00,108.00,-4486.00,55.00,-213.00,-102.00
64.00,71.00,-4463.00,101.00,-121.00,-51.00
25.00,159.00,-4396.00,68.00,-93.00,-64.00
78.00,116.00,-4411.00,50.00,-108.00,-43.00
64.00,164.00,-4388.00,32.00,-322.00,41.00
13.00,165.00,-4478.00,25.00,-469.00,62.00
-7.00,129.00,-4462.00,65.00,-475.00,73.00
73.00,120.00,-4482.00,25.00,-600.00,111.00
-76.00,233.00,-4319.00,79.00,-266.00,-149.00
-5.00,117.00,-4424.00,77.00,73.00,-291.00
75.00,144.00,-4465.00,18.00,-31.00,-72.00
26.00,155.00,-4427.00,42.00,-214.00,-30.00
-8.00,134.00,-4474.00,120.00,-192.00,-181.00
11.00,81.00,-4409.00,96.00,-160.00,-183.00
-2.00,111.00,-4443.00,19.00,-126.00,-28.00
12.00,140.00,-4440.00,26.00,-186.00,13.00
6.00,155.00,-4446.00,67.00,-205.00,-63.00
1.00,156.00,-4437.00,56.00,-271.00,-34.00
1.00,163.00,-4405.00,73.00,-295.00,-2.00
-12.00,142.00,-4422.00,75.00,-206.00,-69.00
-14.00,138.00,-4434.00,85.00,-142.00,-81.00
-30.00,159.00,-4444.00,60.00,-131.00,-46.00
17.00,102.00,-4468.00,58.00,-102.00,-36.00
-43.00,118.00,-4464.00,75.00,-164.00,-33.00
39.00,136.00,-4419.00,52.00,-111.00,-7.00
26.00,142.00,-4431.00,40.00,-126.00,28.00
8.00,150.00,-4443.00,53.00,-120.00,-17.00
-2.00,145.00,-4451.00,42.00,-130.00,7.00
-56.00,152.00,-4402.00,70.00,-123.00,-18.00
-29.00,71.00,-4632.00,121.00,36.00,-12.00
93.00,189.00,-4378.00,26.00,89.00,0.00
7.00,116.00,-4384.00,53.00,-91.00,12.00
-60.00,131.00,-4448.00,38.00,-103.00,48.00
-16.00,190.00,-4403.00,14.00,42.00,11.00
-46.00,146.00,-4449.00,72.00,98.00,-124.00
-63.00,137.00,-4426.00,33.00,199.00,-159.00
0.00,186.00,-4447.00,14.00,225.00,-129.00
-31.00,177.00,-4408.00,70.00,216.00,-137.00
4.00,141.00,-4454.00,50.00,204.00,-78.00
1.00,112.00,-4480.00,26.00,163.00,-30.00
40.00,139.00,-4466.00,15.00,79.00,38.00
-9.00,157.00,-4400.00,-3.00,107.00,87.00
-3.00,137.00,-4440.00,14.00,147.00,15.00
-41.00,146.00,-4446.00,20.00,244.00,6.00
-81.00,142.00,-4426.00,3.00,430.00,-41.00
-19.00,156.00,-4423.00,15.00,606.00,-107.00
-18.00,169.00,-4415.00,27.00,716.00,-138.00
-26.00,134.00,-4436.00,52.00,835.00,-162.00
46.00,139.00,-4478.00,76.00,957.00,-186.00
55.00,135.00,-4457.00,66.00,910.00,-120.00
214.00,50.00,-4504.00,-3.00,534.00,112.00
131.00,181.00,-4543.00,-134.00,-13.00,209.00
50.00,91.00,-4491.00,68.00,-79.00,108.00
50.00,109.00,-4384.00,67.00,180.00,10.00
64.00,150.00,-4473.00,-60.00,175.00,137.00
167.00,147.00,-4593.00,-5.00,81.00,159.00
54.00,95.00,-4500.00,35.00,-91.00,62.00
37.00,208.00,-4414.00,-26.00,-17.00,157.00
-16.00,102.00,-4397.00,-22.00,160.00,162.00
12.00,132.00,-4433.00,-7.00,264.00,96.00
61.00,168.00,-4432.00,-70.00,474.00,173.00
49.00,124.00,-4451.00,-52.00,540.00,241.00
35.00,155.00,-4447.00,-42.00,498.00,158.00
94.00,196.00,-4440.00,-10.00,604.00,126.00
54.00,132.00,-4429.00,21.00,753.00,16.00
50.00,153.00,-4452.00,59.00,861.00,-17.00
90.00,185.00,-4417.00,110.00,951.00,-15.00
126.00,139.00,-4478.00,164.00,886.00,-52.00
168.00,154.00,-4456.00,138.00,733.00,-88.00
133.00,157.00,-4515.00,97.00,500.00,-62.00
139.00,134.00,-4408.00,56.00,327.00,-107.00
142.00,150.00,-4435.00,110.00,317.00,-106.00
80.00,180.00,-4429.00,114.00,466.00,-176.00
88.00,161.00,-4419.00,208.00,670.00,-222.00
132.00,158.00,-4461.00,204.00,839.00,-225.00
174.00,129.00,-4451.00,185.00,803.00,-239.00
172.00,156.00,-4489.00,139.00,535.00,-237.00
108.00,112.00,-4521.00,114.00,396.00,-142.00
145.00,158.00,-4462.00,119.00,459.00,-174.00
170.00,151.00,-4433.00,129.00,486.00,-206.00
184.00,130.00,-4459.00,109.00,442.00,-187.00
169.00,129.00,-4425.00,115.00,424.00,-140.00
185.00,151.00,-4462.00,88.00,444.00,-179.00
154.00,135.00,-4414.00,129.00,460.00,-196.00
196.00,115.00,-4469.00,108.00,358.00,-227.00
219.00,143.00,-4479.00,161.00,241.00,-246.00
195.00,98.00,-4440.00,49.00,257.00,-80.00
196.00,138.00,-4472.00,18.00,301.00,13.00
195.00,136.00,-4470.00,35.00,223.00,0.00
189.00,127.00,-4443.00,56.00,196.00,-6.00
186.00,150.00,-4447.00,23.00,205.00,10.00
199.00,154.00,-4458.00,47.00,204.00,-25.00
194.00,133.00,-4430.00,53.00,170.00,-10.00
189.00,169.00,-4463.00,21.00,144.00,35.00
185.00,122.00,-4437.00,24.00,123.00,37.00
216.00,123.00,-4443.00,16.00,132.00,40.00
212.00,140.00,-4460.00,1.00,105.00,73.00
204.00,155.00,-4456.00,16.00,83.00,63.00
192.00,124.00,-4455.00,2.00,76.00,61.00
227.00,126.00,-4462.00,-4.00,88.00,61.00
208.00,129.00,-4436.00,13.00,85.00,40.00
198.00,145.00,-4400.00,20.00,65.00,49.00
192.00,132.00,-4449.00,13.00,61.00,58.00
202.00,137.00,-4424.00,28.00,72.00,42.00
206.00,155.00,-4466.00,17.00,98.00,32.00
209.00,152.00,-4428.00,30.00,97.00,18.00
173.00,143.00,-4476.00,19.00,109.00,-15.00
237.00,118.00,-4438.00,28.00,102.00,-6.00
189.00,142.00,-4434.00,25.00,107.00,-1.00
224.00,152.00,-4462.00,34.00,107.00,-9.00
219.00,129.00,-4447.00,31.00,108.00,-17.00
239.00,150.00,-4467.00,52.00,117.00,-25.00
215.00,142.00,-4444.00,29.00,114.00,-34.00
207.00,123.00,-4436.00,39.00,96.00,-29.00
227.00,123.00,-4451.00,42.00,64.00,-33.00
229.00,141.00,-4420.00,30.00,73.00,-33.00
235.00,133.00,-4453.00,38.00,32.00,-38.00
230.00,137.00,-4443.00,44.00,23.00,-28.00
211.00,117.00,-4452.00,20.00,4.00,-24.00
223.00,149.00,-4431.00,32.00,-17.00,-23.00
232.00,147.00,-4440.00,22.00,-28.00,-13.00
242.00,123.00,-4486.00,21.00,-21.00,-25.00
201.00,143.00,-4438.00,30.00,-16.00,-6.00
246.00,128.00,-4427.00,34.00,-3.00,-22.00
230.00,119.00,-4451.00,33.00,3.00,-19.00
228.00,133.00,-4433.00,42.00,19.00,-33.00
213.00,125.00,-4442.00,46.00,21.00,-23.00
233.00,154.00,-4453.00,35.00,36.00,-27.00
207.00,136.00,-4450.00,33.00,32.00,-27.00
217.00,114.00,-4433.00,25.00,51.00,-26.00
256.00,135.00,-4432.00,32.00,50.00,-32.00
203.00,124.00,-4433.00,44.00,41.00,-36.00
216.00,150.00,-4441.00,46.00,37.00,-39.00
238.00,139.00,-4446.00,36.00,44.00,-21.00
227.00,128.00,-4444.00,44.00,34.00,-25.00
220.00,125.00,-4451.00,29.00,25.00,-25.00
228.00,135.00,-4443.00,46.00,28.00,-31.00
216.00,136.00,-4459.00,35.00,16.00,-29.00
204.00,122.00,-4428.00,32.00,19.00,-30.00
218.00,131.00,-4470.00,35.00,15.00,-36.00
205.00,151.00,-4456.00,29.00,22.00,-21.00
209.00,144.00,-4444.00,29.00,9.00,-15.00
230.00,134.00,-4454.00,36.00,13.00,-13.00
229.00,128.00,-4463.00,38.00,9.00,-29.00
238.00,116.00,-4448.00,36.00,-1.00,-25.00
233.00,142.00,-4452.00,50.00,7.00,-26.00
233.00,150.00,-4458.00,35.00,6.00,-22.00
251.00,125.00,-4460.00,38.00,12.00,-26.00
230.00,153.00,-4424.00,44.00,6.00,-28.00
222.00,138.00,-4459.00,44.00,20.00,-31.00
205.00,118.00,-4451.00,43.00,32.00,-28.00
229.00,113.00,-4440.00,32.00,23.00,-20.00
235.00,128.00,-4459.00,40.00,27.00,-29.00
252.00,120.00,-4430.00,34.00,19.00,-29.00
214.00,117.00,-4473.00,40.00,29.00,-40.00
213.00,123.00,-4424.00,37.00,34.00,-36.00
221.00,155.00,-4478.00,45.00,34.00,-42.00
215.00,130.00,-4447.00,40.00,18.00,-36.00
233.00,160.00,-4448.00,41.00,17.00,-30.00
231.00,143.00,-4462.00,43.00,10.00,-37.00
236.00,138.00,-4431.00,46.00,26.00,-32.00
233.00,146.00,-4458.00,24.00,16.00,-30.00
233.00,123.00,-4451.00,37.00,1.00,-29.00
233.00,167.00,-4426.00,37.00,9.00,-19.00
231.00,150.00,-4464.00,42.00,5.00,-19.00
234.00,131.00,-4449.00,46.00,13.00,-30.00
238.00,133.00,-4452.00,32.00,13.00,-25.00
226.00,114.00,-4464.00,37.00,10.00,-24.00
241.00,135.00,-4446.00,47.00,14.00,-17.00
212.00,141.00,-4440.00,27.00,9.00,-15.00
220.00,136.00,-4484.00,42.00,1.00,-31.00
221.00,144.00,-4469.00,39.00,21.00,-25.00
218.00,139.00,-4441.00,35.00,15.00,-35.00
248.00,129.00,-4458.00,41.00,17.00,-16.00
213.00,151.00,-4432.00,42.00,5.00,-23.00
219.00,140.00,-4446.00,37.00,15.00,-34.00
247.00,131.00,-4456.00,40.00,20.00,-33.00
226.00,127.00,-4485.00,46.00,15.00,-26.00
234.00,130.00,-4447.00,46.00,21.00,-28.00
234.00,146.00,-4479.00,36.00,10.00,-27.00
239.00,156.00,-4439.00,46.00,18.00,-25.00
254.00,124.00,-4448.00,36.00,13.00,-29.00
210.00,128.00,-4431.00,23.00,12.00,-33.00
243.00,150.00,-4456.00,37.00,11.00,-31.00
244.00,123.00,-4443.00,34.00,4.00,-24.00
225.00,151.00,-4458.00,35.00,8.00,-27.00
223.00,135.00,-4441.00,36.00,17.00,-34.00
242.00,122.00,-4455.00,31.00,14.00,-25.00
243.00,135.00,-4432.00,36.00,12.00,-29.00
227.00,172.00,-4483.00,44.00,14.00,-15.00
216.00,149.00,-4424.00,35.00,19.00,-36.00
250.00,133.00,-4455.00,24.00,17.00,-32.00
227.00,128.00,-4428.00,39.00,13.00,-21.00
225.00,125.00,-4451.00,48.00,9.00,-28.00
251.00,141.00,-4468.00,34.00,16.00,-30.00
212.00,148.00,-4408.00,39.00,12.00,-35.00
221.00,147.00,-4425.00,38.00,6.00,-28.00
248.00,147.00,-4462.00,33.00,22.00,-25.00
251.00,145.00,-4444.00,45.00,22.00,-38.00
213.00,116.00,-4449.00,26.00,5.00,-28.00
212.00,141.00,-4442.00,33.00,9.00,-25.00
238.00,134.00,-4441.00,27.00,21.00,-34.00
255.00,125.00,-4464.00,33.00,6.00,-33.00
244.00,152.00,-4469.00,31.00,13.00,-31.00
214.00,112.00,-4417.00,31.00,0.00,-26.00
202.00,140.00,-4427.00,29.00,11.00,-27.00
232.00,149.00,-4449.00,34.00,0.00,-26.00
227.00,126.00,-4443.00,40.00,3.00,-44.00
246.00,139.00,-4445.00,34.00,8.00,-21.00
226.00,141.00,-4451.00,42.00,6.00,-25.00
242.00,130.00,-4425.00,37.00,12.00,-21.00
246.00,130.00,-4468.00,37.00,8.00,-36.00
247.00,147.00,-4450.00,40.00,16.00,-31.00
224.00,150.00,-4478.00,45.00,7.00,-38.00
236.00,132.00,-4430.00,43.00,22.00,-38.00
203.00,131.00,-4436.00,34.00,14.00,-22.00
205.00,108.00,-4442.00,36.00,7.00,-31.00
243.00,141.00,-4436.00,31.00,11.00,-28.00
212.00,148.00,-4439.00,42.00,6.00,-24.00
260.00,145.00,-4483.00,36.00,9.00,-26.00
260.00,150.00,-4443.00,40.00,6.00,-33.00
228.00,147.00,-4494.00,34.00,13.00,-30.00
233.00,148.00,-4465.00,37.00,3.00,-36.00
228.00,139.00,-4390.00,42.00,7.00,-29.00
206.00,106.00,-4483.00,27.00,6.00,-20.00
255.00,122.00,-4452.00,39.00,11.00,-26.00
