AccX,AccY,AccZ,GyroX,GyroY,GyroZ
238.00,168.00,-4440.00,32.00,-6.00,-28.00
214.00,171.00,-4425.00,33.00,13.00,-20.00
232.00,163.00,-4464.00,47.00,-4.00,-26.00
236.00,141.00,-4410.00,49.00,16.00,-22.00
232.00,139.00,-4433.00,29.00,-1.00,-20.00
209.00,151.00,-4443.00,37.00,9.00,-19.00
224.00,176.00,-4416.00,44.00,5.00,-32.00
226.00,167.00,-4475.00,43.00,16.00,-21.00
225.00,137.00,-4431.00,53.00,0.00,-19.00
197.00,150.00,-4403.00,32.00,5.00,-27.00
231.00,163.00,-4418.00,32.00,9.00,-16.00
254.00,159.00,-4447.00,40.00,9.00,-29.00
190.00,147.00,-4434.00,40.00,3.00,-21.00
194.00,165.00,-4446.00,49.00,4.00,-32.00
212.00,164.00,-4418.00,36.00,-7.00,-35.00
212.00,152.00,-4438.00,42.00,-4.00,-21.00
229.00,134.00,-4406.00,43.00,7.00,-33.00
234.00,147.00,-4460.00,41.00,11.00,-26.00
184.00,170.00,-4414.00,30.00,15.00,-37.00
234.00,147.00,-4423.00,33.00,9.00,-19.00
238.00,157.00,-4425.00,34.00,7.00,-21.00
241.00,158.00,-4426.00,24.00,23.00,-26.00
219.00,135.00,-4450.00,47.00,12.00,-30.00
233.00,164.00,-4440.00,36.00,12.00,-22.00
222.00,148.00,-4467.00,38.00,24.00,-27.00
233.00,157.00,-4436.00,40.00,4.00,-27.00
225.00,151.00,-4434.00,43.00,-4.00,-42.00
215.00,159.00,-4438.00,38.00,5.00,-15.00
229.00,146.00,-4447.00,30.00,-2.00,-39.00
240.00,170.00,-4447.00,24.00,11.00,-19.00
218.00,153.00,-4451.00,27.00,12.00,-27.00
210.00,172.00,-4440.00,38.00,8.00,-23.00
215.00,144.00,-4413.00,53.00,9.00,-37.00
240.00,154.00,-4395.00,24.00,10.00,-25.00
238.00,169.00,-4403.00,33.00,6.00,-15.00
230.00,151.00,-4449.00,43.00,22.00,-20.00
209.00,146.00,-4436.00,40.00,7.00,-24.00
200.00,150.00,-4465.00,41.00,-1.00,-28.00
239.00,165.00,-4434.00,47.00,14.00,-18.00
198.00,150.00,-4448.00,38.00,6.00,-25.00
215.00,167.00,-4442.00,37.00,5.00,-19.00
222.00,142.00,-4459.00,37.00,4.00,-28.00
240.00,172.00,-4445.00,46.00,5.00,-32.00
226.00,151.00,-4422.00,42.00,7.00,-45.00
262.00,152.00,-4440.00,34.00,7.00,-16.00
236.00,156.00,-4448.00,42.00,-12.00,-43.00
239.00,143.00,-4419.00,52.00,6.00,-28.00
225.00,147.00,-4422.00,38.00,14.00,-25.00
231.00,159.00,-4423.00,39.00,3.00,-37.00
218.00,163.00,-4435.00,40.00,9.00,-34.00
221.00,155.00,-4452.00,41.00,4.00,-27.00
238.00,156.00,-4453.00,36.00,8.00,-33.00
213.00,163.00,-4456.00,42.00,-7.00,-27.00
241.00,151.00,-4422.00,17.00,-4.00,-42.00
233.00,138.00,-4423.00,26.00,8.00,-30.00
216.00,145.00,-4441.00,40.00,6.00,-36.00
233.00,125.00,-4438.00,36.00,11.00,-22.00
195.00,166.00,-4458.00,34.00,4.00,-23.00
225.00,163.00,-4449.00,32.00,13.00,-44.00
217.00,144.00,-4446.00,28.00,2.00,-23.00
247.00,176.00,-4441.00,31.00,11.00,-24.00
221.00,168.00,-4421.00,41.00,15.00,-40.00
242.00,171.00,-4446.00,39.00,4.00,-46.00
239.00,155.00,-4426.00,36.00,10.00,-36.00
215.00,130.00,-4432.00,36.00,7.00,-30.00
206.00,152.00,-4436.00,52.00,11.00,-33.00
218.00,151.00,-4431.00,37.00,14.00,-26.00
205.00,160.00,-4457.00,48.00,14.00,-26.00
207.00,165.00,-4459.00,37.00,2.00,-28.00
209.00,177.00,-4447.00,43.00,21.00,-19.00
219.00,144.00,-4477.00,41.00,0.00,-25.00
231.00,144.00,-4415.00,38.00,5.00,-30.00
209.00,158.00,-4427.00,27.00,10.00,-26.00
241.00,176.00,-4457.00,34.00,8.00,-31.00
230.00,164.00,-4398.00,43.00,3.00,-21.00
218.00,174.00,-4461.00,41.00,0.00,-27.00
229.00,127.00,-4420.00,35.00,6.00,-38.00
252.00,149.00,-4413.00,30.00,5.00,-31.00
233.00,158.00,-4419.00,40.00,12.00,-21.00
229.00,182.00,-4445.00,41.00,8.00,-34.00
229.00,147.00,-4440.00,36.00,6.00,-33.00
247.00,140.00,-4436.00,41.00,6.00,-27.00
221.00,139.00,-4441.00,38.00,1.00,-16.00
233.00,148.00,-4451.00,40.00,0.00,-11.00
226.00,138.00,-4431.00,37.00,-4.00,-24.00
209.00,177.00,-4433.00,42.00,18.00,-21.00
254.00,161.00,-4432.00,37.00,-5.00,-30.00
251.00,159.00,-4460.00,29.00,0.00,-32.00
226.00,155.00,-4440.00,22.00,9.00,-30.00
244.00,146.00,-4456.00,43.00,7.00,-31.00
208.00,133.00,-4443.00,20.00,5.00,-39.00
249.00,159.00,-4442.00,35.00,15.00,-21.00
224.00,158.00,-4415.00,49.00,18.00,-29.00
233.00,141.00,-4453.00,31.00,5.00,-20.00
216.00,152.00,-4418.00,43.00,11.00,-12.00
238.00,155.00,-4427.00,49.00,5.00,-29.00
231.00,155.00,-4409.00,16.00,15.00,-21.00
228.00,130.00,-4442.00,37.00,5.00,-32.00
252.00,162.00,-4461.00,42.00,15.00,-30.00
221.00,153.00,-4446.00,32.00,8.00,-24.00
221.00,168.00,-4421.00,32.00,3.00,-23.00
237.00,152.00,-4449.00,35.00,-7.00,-24.00
195.00,151.00,-4426.00,32.00,16.00,-12.00
210.00,175.00,-4420.00,39.00,9.00,-33.00
244.00,145.00,-4438.00,41.00,10.00,-24.00
222.00,167.00,-4423.00,41.00,1.00,-18.00
206.00,158.00,-4411.00,33.00,5.00,-27.00
248.00,146.00,-4445.00,31.00,0.00,-37.00
237.00,152.00,-4455.00,27.00,9.00,-20.00
226.00,166.00,-4468.00,39.00,5.00,-37.00
227.00,169.00,-4467.00,38.00,9.00,-31.00
223.00,156.00,-4427.00,30.00,-7.00,-37.00
227.00,171.00,-4448.00,38.00,5.00,-28.00
208.00,140.00,-4445.00,49.00,-6.00,-25.00
207.00,148.00,-4399.00,32.00,2.00,-33.00
228.00,138.00,-4451.00,24.00,2.00,-29.00
207.00,139.00,-4443.00,33.00,-3.00,-30.00
234.00,159.00,-4414.00,27.00,3.00,-26.00
215.00,142.00,-4457.00,30.00,12.00,-33.00
220.00,154.00,-4445.00,48.00,14.00,-28.00
240.00,169.00,-4430.00,48.00,-2.00,-29.00
221.00,144.00,-4437.00,32.00,4.00,-29.00
240.00,129.00,-4428.00,54.00,-8.00,-33.00
228.00,186.00,-4451.00,33.00,11.00,-29.00
222.00,157.00,-4436.00,30.00,4.00,-19.00
227.00,146.00,-4423.00,45.00,7.00,-25.00
228.00,153.00,-4436.00,42.00,12.00,-19.00
208.00,130.00,-4414.00,36.00,0.00,-29.00
212.00,151.00,-4429.00,50.00,17.00,-24.00
230.00,167.00,-4410.00,25.00,15.00,-22.00
216.00,160.00,-4423.00,39.00,13.00,-38.00
234.00,164.00,-4454.00,46.00,4.00,-26.00
251.00,130.00,-4462.00,25.00,7.00,-28.00
247.00,140.00,-4433.00,37.00,10.00,-31.00
215.00,136.00,-4430.00,32.00,16.00,-25.00
218.00,158.00,-4439.00,24.00,11.00,-23.00
235.00,177.00,-4450.00,37.00,11.00,-23.00
233.00,160.00,-4423.00,44.00,2.00,-23.00
209.00,166.00,-4434.00,36.00,7.00,-26.00
223.00,149.00,-4434.00,37.00,-11.00,-23.00
216.00,140.00,-4417.00,30.00,6.00,-28.00
225.00,145.00,-4456.00,32.00,5.00,-36.00
240.00,154.00,-4434.00,43.00,8.00,-37.00
210.00,143.00,-4427.00,49.00,10.00,-28.00
238.00,153.00,-4405.00,42.00,-2.00,-41.00
227.00,148.00,-4439.00,39.00,5.00,-29.00
206.00,161.00,-4439.00,34.00,10.00,-29.00
223.00,169.00,-4421.00,39.00,3.00,-22.00
238.00,167.00,-4460.00,45.00,-9.00,-33.00
230.00,159.00,-4461.00,44.00,7.00,-38.00
248.00,152.00,-4445.00,30.00,0.00,-34.00
247.00,146.00,-4444.00,46.00,14.00,-35.00
245.00,147.00,-4449.00,52.00,19.00,-33.00
214.00,151.00,-4433.00,32.00,-3.00,-27.00
211.00,158.00,-4443.00,42.00,0.00,-29.00
228.00,153.00,-4436.00,31.00,4.00,-30.00
245.00,147.00,-4436.00,28.00,14.00,-34.00
242.00,148.00,-4439.00,33.00,10.00,-24.00
229.00,134.00,-4446.00,33.00,10.00,-28.00
230.00,144.00,-4431.00,53.00,18.00,-31.00
239.00,145.00,-4447.00,39.00,17.00,-29.00
215.00,169.00,-4430.00,44.00,-3.00,-23.00
236.00,154.00,-4427.00,45.00,9.00,-26.00
226.00,147.00,-4425.00,29.00,11.00,-21.00
237.00,157.00,-4434.00,57.00,9.00,-18.00
215.00,144.00,-4454.00,41.00,5.00,-26.00
230.00,156.00,-4443.00,22.00,5.00,-19.00
216.00,152.00,-4424.00,44.00,5.00,-39.00
242.00,167.00,-4402.00,32.00,2.00,-16.00
221.00,148.00,-4446.00,34.00,12.00,-24.00
245.00,149.00,-4418.00,41.00,15.00,-34.00
205.00,142.00,-4461.00,41.00,1.00,-39.00
227.00,156.00,-4419.00,33.00,5.00,-13.00
233.00,152.00,-4431.00,37.00,2.00,-35.00
233.00,145.00,-4415.00,50.00,12.00,-22.00
215.00,152.00,-4444.00,43.00,5.00,-31.00
216.00,131.00,-4427.00,39.00,6.00,-26.00
241.00,143.00,-4426.00,25.00,3.00,-36.00
241.00,149.00,-4422.00,42.00,9.00,-29.00
217.00,172.00,-4447.00,38.00,14.00,-22.00
209.00,158.00,-4432.00,37.00,-9.00,-22.00
212.00,138.00,-4432.00,28.00,-4.00,-30.00
219.00,165.00,-4428.00,50.00,-1.00,-30.00
223.00,154.00,-4447.00,31.00,10.00,-36.00
221.00,148.00,-4424.00,52.00,12.00,-25.00
206.00,170.00,-4417.00,40.00,11.00,-25.00
206.00,158.00,-4410.00,42.00,14.00,-21.00
215.00,140.00,-4438.00,37.00,28.00,-23.00
239.00,182.00,-4411.00,45.00,14.00,-31.00
233.00,136.00,-4454.00,35.00,5.00,-27.00
191.00,154.00,-4410.00,33.00,2.00,-30.00
254.00,145.00,-4455.00,40.00,4.00,-26.00
230.00,142.00,-4477.00,38.00,12.00,-29.00
212.00,159.00,-4422.00,46.00,7.00,-20.00
229.00,139.00,-4415.00,30.00,-3.00,-28.00
198.00,129.00,-4416.00,49.00,25.00,-10.00
232.00,150.00,-4423.00,33.00,6.00,-28.00
217.00,135.00,-4455.00,47.00,18.00,-36.00
209.00,156.00,-4437.00,30.00,-1.00,-33.00
256.00,168.00,-4439.00,27.00,11.00,-24.00
223.00,165.00,-4451.00,36.00,17.00,-23.00
218.00,160.00,-4439.00,49.00,3.00,-26.00
205.00,156.00,-4467.00,28.00,13.00,-26.00
234.00,150.00,-4443.00,25.00,-4.00,-16.00
240.00,168.00,-4442.00,39.00,1.00,-17.00
226.00,176.00,-4425.00,43.00,-5.00,-23.00
240.00,164.00,-4441.00,39.00,5.00,-17.00
230.00,149.00,-4417.00,34.00,3.00,-19.00
223.00,157.00,-4431.00,30.00,15.00,-22.00
214.00,148.00,-4433.00,37.00,15.00,-23.00
220.00,143.00,-4455.00,29.00,19.00,-30.00
221.00,148.00,-4437.00,40.00,8.00,-24.00
238.00,152.00,-4439.00,30.00,5.00,-22.00
226.00,160.00,-4443.00,26.00,14.00,-22.00
229.00,160.00,-4439.00,29.00,14.00,-26.00
230.00,145.00,-4452.00,41.00,-4.00,-20.00
224.00,149.00,-4450.00,43.00,13.00,-15.00
218.00,177.00,-4407.00,41.00,7.00,-30.00
231.00,172.00,-4420.00,38.00,3.00,-24.00
212.00,148.00,-4425.00,29.00,11.00,-29.00
197.00,139.00,-4448.00,45.00,14.00,-33.00
231.00,122.00,-4464.00,31.00,7.00,-43.00
229.00,130.00,-4434.00,45.00,0.00,-25.00
204.00,140.00,-4428.00,35.00,19.00,-36.00
236.00,153.00,-4455.00,29.00,-8.00,-22.00
221.00,148.00,-4460.00,41.00,6.00,-22.00
233.00,165.00,-4403.00,32.00,7.00,-25.00
226.00,170.00,-4453.00,29.00,-2.00,-32.00
220.00,161.00,-4454.00,41.00,14.00,-28.00
230.00,154.00,-4446.00,26.00,7.00,-24.00
241.00,150.00,-4449.00,41.00,14.00,-30.00
228.00,177.00,-4439.00,45.00,8.00,-32.00
252.00,154.00,-4467.00,37.00,11.00,-26.00
254.00,172.00,-4441.00,41.00,9.00,-27.00
230.00,162.00,-4437.00,33.00,0.00,-26.00
223.00,174.00,-4458.00,41.00,6.00,-26.00
220.00,151.00,-4458.00,32.00,2.00,-18.00
245.00,152.00,-4438.00,42.00,-4.00,-25.00
215.00,156.00,-4439.00,33.00,-2.00,-20.00
240.00,158.00,-4444.00,31.00,14.00,-29.00
225.00,149.00,-4439.00,35.00,10.00,-26.00
192.00,163.00,-4419.00,32.00,4.00,-28.00
241.00,146.00,-4449.00,43.00,10.00,-34.00
234.00,146.00,-4454.00,51.00,-1.00,-17.00
217.00,142.00,-4445.00,33.00,6.00,-39.00
199.00,153.00,-4443.00,37.00,13.00,-22.00
227.00,143.00,-4437.00,45.00,8.00,-19.00
226.00,157.00,-4426.00,38.00,0.00,-35.00
201.00,159.00,-4482.00,50.00,12.00,-33.00
227.00,147.00,-4454.00,36.00,4.00,-17.00
220.00,126.00,-4454.00,32.00,6.00,-28.00
225.00,135.00,-4449.00,35.00,7.00,-32.00
228.00,158.00,-4441.00,49.00,-2.00,-34.00
228.00,135.00,-4424.00,49.00,7.00,-29.00
215.00,171.00,-4456.00,34.00,-1.00,-18.00
238.00,154.00,-4435.00,33.00,10.00,-26.00
207.00,157.00,-4421.00,35.00,18.00,-25.00
232.00,163.00,-4444.00,35.00,0.00,-25.00
236.00,164.00,-4434.00,41.00,8.00,-28.00
231.00,162.00,-4429.00,30.00,9.00,-25.00
245.00,166.00,-4449.00,37.00,21.00,-31.00
201.00,138.00,-4445.00,51.00,0.00,-22.00
216.00,152.00,-4444.00,34.00,-2.00,-28.00
228.00,140.00,-4401.00,32.00,15.00,-22.00
212.00,134.00,-4435.00,48.00,2.00,-31.00
231.00,157.00,-4434.00,29.00,13.00,-17.00
194.00,160.00,-4419.00,30.00,2.00,-22.00
212.00,154.00,-4440.00,34.00,11.00,-41.00
221.00,146.00,-4458.00,14.00,4.00,-29.00
218.00,149.00,-4420.00,34.00,11.00,-33.00
226.00,177.00,-4432.00,30.00,12.00,-30.00
229.00,153.00,-4439.00,22.00,2.00,-25.00
232.00,139.00,-4447.00,59.00,7.00,-29.00
226.00,142.00,-4430.00,19.00,-3.00,-26.00
235.00,148.00,-4417.00,26.00,14.00,-13.00
252.00,139.00,-4450.00,39.00,10.00,-26.00
228.00,142.00,-4408.00,46.00,6.00,-23.00
217.00,148.00,-4444.00,42.00,-2.00,-32.00
206.00,134.00,-4431.00,40.00,14.00,-28.00
229.00,141.00,-4418.00,32.00,7.00,-34.00
211.00,144.00,-4420.00,33.00,1.00,-26.00
223.00,137.00,-4441.00,22.00,-1.00,-35.00
210.00,172.00,-4426.00,31.00,7.00,-18.00
232.00,139.00,-4455.00,38.00,-3.00,-29.00
232.00,155.00,-4443.00,28.00,7.00,-22.00
204.00,164.00,-4425.00,46.00,15.00,-46.00
228.00,176.00,-4445.00,35.00,7.00,-23.00
238.00,144.00,-4412.00,44.00,12.00,-23.00
245.00,152.00,-4414.00,31.00,3.00,-31.00
216.00,163.00,-4469.00,23.00,6.00,-28.00
223.00,156.00,-4425.00,39.00,4.00,-45.00
215.00,134.00,-4445.00,31.00,13.00,-21.00
223.00,175.00,-4451.00,21.00,-1.00,-32.00
226.00,157.00,-4434.00,33.00,4.00,-25.00
251.00,161.00,-4408.00,37.00,11.00,-31.00
228.00,156.00,-4445.00,47.00,10.00,-27.00
246.00,160.00,-4419.00,40.00,12.00,-32.00
249.00,149.00,-4465.00,48.00,12.00,-37.00
233.00,176.00,-4456.00,35.00,19.00,-13.00
200.00,154.00,-4436.00,43.00,21.00,-27.00
224.00,144.00,-4449.00,20.00,2.00,-32.00
242.00,151.00,-4421.00,36.00,9.00,-35.00
242.00,165.00,-4432.00,32.00,17.00,-16.00
216.00,161.00,-4446.00,27.00,3.00,-33.00
219.00,179.00,-4449.00,48.00,12.00,-25.00
240.00,155.00,-4438.00,40.00,2.00,-17.00
233.00,151.00,-4438.00,34.00,4.00,-28.00
232.00,161.00,-4436.00,41.00,12.00,-21.00
225.00,162.00,-4434.00,34.00,17.00,-27.00
247.00,148.00,-4434.00,33.00,5.00,-17.00
230.00,168.00,-4446.00,37.00,17.00,-28.00
230.00,144.00,-4445.00,43.00,8.00,-21.00
216.00,137.00,-4457.00,49.00,3.00,-24.00
221.00,175.00,-4442.00,36.00,1.00,-27.00
223.00,181.00,-4449.00,36.00,7.00,-26.00
241.00,140.00,-4446.00,29.00,19.00,-24.00
230.00,146.00,-4438.00,40.00,-2.00,-30.00
218.00,134.00,-4436.00,36.00,3.00,-28.00
219.00,167.00,-4422.00,44.00,0.00,-26.00
218.00,152.00,-4445.00,46.00,12.00,-29.00
240.00,145.00,-4441.00,27.00,12.00,-29.00
227.00,143.00,-4459.00,34.00,4.00,-22.00
220.00,126.00,-4443.00,32.00,-1.00,-16.00
228.00,145.00,-4440.00,36.00,5.00,-32.00
234.00,156.00,-4436.00,25.00,16.00,-20.00
235.00,150.00,-4432.00,30.00,12.00,-26.00
199.00,152.00,-4447.00,33.00,2.00,-19.00
214.00,177.00,-4432.00,32.00,12.00,-22.00
232.00,155.00,-4443.00,29.00,-7.00,-19.00
246.00,168.00,-4430.00,39.00,2.00,-20.00
243.00,150.00,-4450.00,55.00,6.00,-39.00
210.00,177.00,-4429.00,39.00,12.00,-26.00
231.00,141.00,-4447.00,51.00,10.00,-33.00
208.00,143.00,-4446.00,28.00,-5.00,-21.00
244.00,159.00,-4451.00,38.00,5.00,-17.00
236.00,144.00,-4455.00,30.00,9.00,-16.00
209.00,160.00,-4415.00,26.00,2.00,-14.00
231.00,143.00,-4432.00,40.00,3.00,-19.00
222.00,160.00,-4482.00,44.00,5.00,-29.00
239.00,136.00,-4430.00,46.00,5.00,-36.00
224.00,161.00,-4434.00,34.00,-6.00,-26.00
234.00,153.00,-4449.00,48.00,3.00,-31.00
228.00,156.00,-4434.00,33.00,12.00,-27.00
243.00,146.00,-4411.00,35.00,9.00,-21.00
235.00,145.00,-4459.00,20.00,-1.00,-24.00
202.00,129.00,-4405.00,50.00,12.00,-28.00
236.00,157.00,-4445.00,23.00,5.00,-33.00
212.00,133.00,-4421.00,35.00,13.00,-25.00
230.00,160.00,-4420.00,40.00,13.00,-23.00
227.00,150.00,-4436.00,34.00,19.00,-39.00
223.00,143.00,-4416.00,27.00,20.00,-29.00
223.00,162.00,-4433.00,48.00,17.00,-35.00
216.00,146.00,-4430.00,32.00,11.00,-20.00
217.00,147.00,-4469.00,43.00,18.00,-16.00
219.00,152.00,-4442.00,50.00,14.00,-28.00
239.00,142.00,-4437.00,37.00,-3.00,-36.00
217.00,163.00,-4462.00,28.00,-4.00,-31.00
238.00,136.00,-4460.00,37.00,11.00,-16.00
204.00,156.00,-4411.00,25.00,3.00,-25.00
250.00,158.00,-4433.00,33.00,-2.00,-14.00
227.00,169.00,-4436.00,34.00,13.00,-24.00
222.00,151.00,-4426.00,32.00,7.00,-31.00
212.00,156.00,-4434.00,33.00,5.00,-18.00
240.00,168.00,-4414.00,40.00,4.00,-34.00
250.00,172.00,-4446.00,34.00,1.00,-24.00
218.00,176.00,-4436.00,34.00,11.00,-30.00
218.00,143.00,-4451.00,34.00,16.00,-31.00
226.00,145.00,-4444.00,39.00,9.00,-27.00
235.00,160.00,-4448.00,34.00,2.00,-21.00
221.00,157.00,-4455.00,32.00,10.00,-23.00
207.00,159.00,-4455.00,32.00,6.00,-37.00
239.00,172.00,-4440.00,43.00,14.00,-24.00
223.00,141.00,-4433.00,30.00,-8.00,-26.00
209.00,147.00,-4443.00,38.00,13.00,-26.00
239.00,145.00,-4434.00,46.00,8.00,-33.00
228.00,153.00,-4433.00,16.00,11.00,-17.00
221.00,146.00,-4449.00,54.00,-2.00,-22.00
228.00,145.00,-4448.00,27.00,8.00,-27.00
231.00,150.00,-4481.00,35.00,15.00,-37.00
230.00,136.00,-4439.00,22.00,8.00,-29.00
224.00,185.00,-4418.00,32.00,7.00,-22.00
211.00,162.00,-4406.00,52.00,0.00,-27.00
220.00,136.00,-4458.00,40.00,18.00,-20.00
235.00,142.00,-4440.00,18.00,7.00,-15.00
230.00,157.00,-4434.00,40.00,4.00,-25.00
242.00,149.00,-4402.00,43.00,11.00,-22.00
255.00,148.00,-4426.00,46.00,12.00,-30.00
229.00,143.00,-4436.00,30.00,6.00,-27.00
250.00,171.00,-4419.00,26.00,5.00,-29.00
225.00,157.00,-4467.00,40.00,4.00,-29.00
245.00,142.00,-4411.00,34.00,7.00,-34.00
219.00,162.00,-4436.00,39.00,-1.00,-28.00
252.00,145.00,-4414.00,33.00,4.00,-31.00
241.00,131.00,-4427.00,38.00,-4.00,-29.00
232.00,143.00,-4451.00,45.00,8.00,-36.00
223.00,148.00,-4434.00,22.00,1.00,-30.00
234.00,155.00,-4468.00,40.00,11.00,-39.00
223.00,153.00,-4429.00,48.00,10.00,-14.00
216.00,155.00,-4429.00,34.00,11.00,-31.00
196.00,169.00,-4463.00,50.00,15.00,-26.00
217.00,164.00,-4460.00,40.00,13.00,-29.00
269.00,142.00,-4431.00,18.00,0.00,-14.00
227.00,150.00,-4423.00,33.00,-1.00,-25.00
247.00,165.00,-4435.00,32.00,14.00,-14.00
245.00,163.00,-4425.00,41.00,-1.00,-35.00
228.00,161.00,-4392.00,38.00,3.00,-23.00
217.00,161.00,-4416.00,30.00,9.00,-25.00
213.00,157.00,-4453.00,33.00,8.00,-35.00
236.00,134.00,-4474.00,37.00,6.00,-28.00
227.00,147.00,-4430.00,42.00,-2.00,-25.00
213.00,153.00,-4434.00,37.00,4.00,-25.00
224.00,149.00,-4435.00,42.00,3.00,-31.00
224.00,152.00,-4457.00,39.00,2.00,-15.00
221.00,161.00,-4440.00,37.00,4.00,-21.00
237.00,161.00,-4424.00,31.00,11.00,-33.00
250.00,128.00,-4431.00,46.00,8.00,-29.00
224.00,141.00,-4460.00,33.00,15.00,-25.00
238.00,146.00,-4396.00,39.00,12.00,-27.00
230.00,159.00,-4427.00,25.00,-6.00,-27.00
236.00,164.00,-4463.00,43.00,-1.00,-37.00
192.00,152.00,-4432.00,27.00,4.00,-20.00
203.00,149.00,-4444.00,38.00,17.00,-34.00
247.00,157.00,-4445.00,41.00,1.00,-27.00
215.00,171.00,-4434.00,29.00,17.00,-23.00
234.00,146.00,-4464.00,32.00,6.00,-33.00
217.00,160.00,-4407.00,34.00,16.00,-25.00
217.00,135.00,-4440.00,45.00,2.00,-18.00
217.00,173.00,-4439.00,40.00,9.00,-11.00
229.00,169.00,-4443.00,29.00,11.00,-39.00
221.00,173.00,-4467.00,27.00,4.00,-33.00
247.00,114.00,-4424.00,35.00,4.00,-28.00
200.00,149.00,-4441.00,43.00,-5.00,-17.00
218.00,139.00,-4433.00,44.00,1.00,-31.00
226.00,145.00,-4451.00,35.00,-1.00,-28.00
230.00,177.00,-4463.00,54.00,12.00,-24.00
231.00,146.00,-4445.00,50.00,24.00,-27.00
219.00,152.00,-4434.00,42.00,2.00,-43.00
229.00,143.00,-4434.00,40.00,18.00,-26.00
215.00,126.00,-4418.00,40.00,3.00,-23.00
246.00,152.00,-4425.00,47.00,4.00,-28.00
225.00,152.00,-4431.00,40.00,17.00,-20.00
209.00,132.00,-4445.00,22.00,4.00,-21.00
225.00,147.00,-4455.00,32.00,18.00,-24.00
223.00,142.00,-4439.00,43.00,16.00,-36.00
224.00,137.00,-4410.00,27.00,4.00,-27.00
247.00,165.00,-4399.00,50.00,14.00,-25.00
225.00,150.00,-4412.00,28.00,-12.00,-16.00
243.00,160.00,-4447.00,42.00,5.00,-30.00
211.00,167.00,-4446.00,36.00,18.00,-34.00
210.00,148.00,-4468.00,48.00,-4.00,-30.00
229.00,144.00,-4460.00,30.00,7.00,-23.00
254.00,143.00,-4463.00,36.00,0.00,-28.00
223.00,152.00,-4424.00,31.00,5.00,-15.00
238.00,164.00,-4455.00,49.00,14.00,-21.00
232.00,162.00,-4453.00,43.00,-5.00,-28.00
243.00,164.00,-4428.00,36.00,-19.00,-28.00
206.00,160.00,-4423.00,34.00,11.00,-29.00
221.00,151.00,-4456.00,36.00,5.00,-18.00
226.00,131.00,-4423.00,36.00,-1.00,-26.00
221.00,151.00,-4429.00,30.00,10.00,-16.00
215.00,133.00,-4432.00,36.00,4.00,-26.00
239.00,153.00,-4438.00,28.00,4.00,-7.00
240.00,127.00,-4425.00,29.00,6.00,-14.00
220.00,144.00,-4419.00,25.00,11.00,-40.00
218.00,151.00,-4456.00,27.00,6.00,-38.00
245.00,148.00,-4474.00,33.00,1.00,-20.00
203.00,134.00,-4440.00,49.00,8.00,-31.00
219.00,147.00,-4408.00,35.00,2.00,-28.00
240.00,156.00,-4421.00,44.00,0.00,-28.00
218.00,157.00,-4437.00,41.00,4.00,-31.00
205.00,170.00,-4417.00,42.00,5.00,-20.00
217.00,175.00,-4438.00,49.00,8.00,-24.00
220.00,153.00,-4455.00,38.00,-12.00,-24.00
229.00,156.00,-4430.00,40.00,0.00,-21.00
216.00,139.00,-4433.00,42.00,19.00,-39.00
232.00,175.00,-4416.00,43.00,-4.00,-30.00
227.00,193.00,-4415.00,27.00,11.00,-1.00
219.00,146.00,-4425.00,39.00,3.00,-29.00
228.00,152.00,-4411.00,29.00,7.00,-22.00
247.00,152.00,-4430.00,40.00,0.00,-36.00
222.00,167.00,-4454.00,40.00,12.00,-27.00
205.00,174.00,-4438.00,34.00,0.00,-33.00
240.00,147.00,-4407.00,51.00,-10.00,-24.00
235.00,161.00,-4458.00,33.00,15.00,-29.00
217.00,157.00,-4454.00,35.00,5.00,-19.00
209.00,148.00,-4417.00,37.00,13.00,-15.00
200.00,162.00,-4432.00,30.00,-8.00,-26.00
209.00,148.00,-4412.00,41.00,7.00,-19.00
222.00,177.00,-4411.00,37.00,7.00,-18.00
246.00,159.00,-4435.00,31.00,8.00,-26.00
237.00,158.00,-4432.00,36.00,2.00,-29.00
215.00,144.00,-4422.00,41.00,3.00,-23.00
228.00,159.00,-4462.00,39.00,3.00,-36.00
242.00,135.00,-4453.00,35.00,8.00,-18.00
199.00,159.00,-4434.00,28.00,-2.00,-36.00
235.00,180.00,-4437.00,36.00,-2.00,-28.00
237.00,148.00,-4447.00,30.00,-2.00,-19.00
246.00,127.00,-4427.00,38.00,-5.00,-20.00
219.00,152.00,-4420.00,32.00,11.00,-32.00
209.00,163.00,-4464.00,33.00,6.00,-19.00
214.00,150.00,-4444.00,39.00,4.00,-31.00
240.00,145.00,-4456.00,44.00,1.00,-29.00
220.00,168.00,-4400.00,42.00,17.00,-30.00
239.00,154.00,-4480.00,51.00,-2.00,-14.00
233.00,166.00,-4451.00,38.00,-1.00,-26.00
207.00,182.00,-4423.00,42.00,6.00,-22.00
222.00,148.00,-4432.00,34.00,14.00,-23.00
227.00,155.00,-4440.00,27.00,-1.00,-29.00
228.00,147.00,-4449.00,39.00,7.00,-30.00
216.00,166.00,-4457.00,29.00,3.00,-20.00
220.00,145.00,-4449.00,45.00,10.00,-18.00
227.00,170.00,-4449.00,52.00,11.00,-35.00
215.00,177.00,-4436.00,36.00,2.00,-31.00
219.00,166.00,-4436.00,55.00,18.00,-28.00
228.00,148.00,-4434.00,50.00,5.00,-35.00
242.00,149.00,-4421.00,31.00,0.00,-21.00
239.00,147.00,-4422.00,42.00,12.00,-25.00
233.00,165.00,-4426.00,45.00,1.00,-23.00
240.00,140.00,-4433.00,45.00,6.00,-33.00
221.00,175.00,-4452.00,21.00,7.00,-28.00
219.00,175.00,-4430.00,39.00,5.00,-23.00
247.00,173.00,-4465.00,44.00,11.00,-30.00
234.00,160.00,-4436.00,36.00,16.00,-34.00
238.00,165.00,-4437.00,36.00,13.00,-16.00
237.00,139.00,-4433.00,30.00,13.00,-25.00
243.00,159.00,-4427.00,48.00,-4.00,-24.00
219.00,173.00,-4467.00,31.00,9.00,-26.00
220.00,162.00,-4436.00,34.00,0.00,-26.00
216.00,150.00,-4411.00,41.00,15.00,-40.00
226.00,143.00,-4494.00,55.00,3.00,-17.00
222.00,155.00,-4403.00,42.00,-8.00,-40.00
218.00,169.00,-4449.00,29.00,12.00,-26.00
223.00,167.00,-4428.00,32.00,6.00,-28.00
246.00,144.00,-4434.00,34.00,0.00,-22.00
228.00,152.00,-4452.00,37.00,-2.00,-22.00
236.00,153.00,-4438.00,43.00,0.00,-27.00
225.00,161.00,-4457.00,44.00,16.00,-31.00
237.00,163.00,-4447.00,40.00,15.00,-33.00
196.00,133.00,-4419.00,44.00,10.00,-23.00
232.00,158.00,-4426.00,51.00,8.00,-21.00
250.00,162.00,-4436.00,40.00,1.00,-38.00
238.00,158.00,-4488.00,36.00,7.00,-36.00
240.00,140.00,-4432.00,34.00,10.00,-30.00
216.00,167.00,-4436.00,43.00,5.00,-31.00
216.00,153.00,-4456.00,42.00,10.00,-26.00
226.00,177.00,-4433.00,45.00,2.00,-26.00
232.00,163.00,-4406.00,40.00,-5.00,-27.00
211.00,138.00,-4422.00,40.00,-1.00,-30.00
232.00,153.00,-4447.00,33.00,15.00,-27.00
222.00,162.00,-4393.00,31.00,10.00,-28.00
218.00,129.00,-4421.00,46.00,11.00,-33.00
236.00,157.00,-4440.00,36.00,4.00,-11.00
224.00,150.00,-4436.00,36.00,19.00,-30.00
240.00,143.00,-4457.00,53.00,-6.00,-29.00
223.00,159.00,-4445.00,47.00,9.00,-26.00
207.00,126.00,-4465.00,37.00,19.00,-35.00
220.00,143.00,-4420.00,45.00,9.00,-32.00
241.00,159.00,-4416.00,40.00,7.00,-24.00
235.00,148.00,-4462.00,44.00,0.00,-18.00
204.00,156.00,-4444.00,36.00,-4.00,-41.00
244.00,137.00,-4454.00,43.00,14.00,-19.00
218.00,149.00,-4449.00,27.00,10.00,-37.00
210.00,143.00,-4446.00,39.00,5.00,-19.00
231.00,159.00,-4426.00,52.00,12.00,-26.00
218.00,145.00,-4426.00,39.00,5.00,-28.00
240.00,170.00,-4419.00,45.00,11.00,-31.00
226.00,136.00,-4451.00,28.00,9.00,-27.00
235.00,173.00,-4438.00,34.00,7.00,-26.00
217.00,150.00,-4440.00,42.00,15.00,-24.00
222.00,134.00,-4448.00,35.00,11.00,-25.00
238.00,151.00,-4454.00,41.00,6.00,-20.00
234.00,135.00,-4453.00,55.00,4.00,-32.00
231.00,157.00,-4455.00,21.00,12.00,-31.00
242.00,156.00,-4448.00,33.00,-7.00,-18.00
211.00,150.00,-4411.00,39.00,8.00,-17.00
244.00,167.00,-4479.00,37.00,11.00,-30.00
221.00,151.00,-4462.00,38.00,1.00,-19.00
234.00,156.00,-4419.00,22.00,11.00,-35.00
245.00,155.00,-4447.00,50.00,1.00,-21.00
205.00,178.00,-4434.00,40.00,-8.00,-32.00
222.00,155.00,-4434.00,38.00,15.00,-35.00
221.00,145.00,-4438.00,37.00,12.00,-37.00
242.00,158.00,-4434.00,42.00,-3.00,-28.00
244.00,134.00,-4437.00,28.00,-9.00,-25.00
253.00,155.00,-4456.00,29.00,4.00,-27.00
216.00,171.00,-4427.00,43.00,2.00,-29.00
253.00,131.00,-4425.00,47.00,8.00,-24.00
233.00,140.00,-4441.00,41.00,10.00,-28.00
210.00,147.00,-4438.00,47.00,15.00,-24.00
227.00,159.00,-4462.00,31.00,11.00,-27.00
259.00,150.00,-4426.00,31.00,-3.00,-34.00
202.00,135.00,-4431.00,43.00,0.00,-27.00
213.00,139.00,-4434.00,30.00,0.00,-17.00
204.00,130.00,-4417.00,34.00,15.00,-35.00
221.00,154.00,-4437.00,29.00,-1.00,-33.00
231.00,151.00,-4441.00,43.00,9.00,-20.00
246.00,156.00,-4423.00,15.00,11.00,-17.00
242.00,152.00,-4460.00,42.00,-2.00,-29.00
237.00,153.00,-4487.00,44.00,8.00,-21.00
224.00,144.00,-4424.00,41.00,1.00,-31.00
235.00,145.00,-4430.00,33.00,11.00,-31.00
199.00,174.00,-4476.00,52.00,2.00,-24.00
231.00,167.00,-4449.00,40.00,9.00,-18.00
206.00,151.00,-4457.00,33.00,14.00,-20.00
222.00,143.00,-4444.00,20.00,10.00,-26.00
243.00,159.00,-4424.00,52.00,-11.00,-22.00
237.00,166.00,-4432.00,26.00,10.00,-28.00
221.00,146.00,-4440.00,35.00,-4.00,-25.00
228.00,168.00,-4449.00,33.00,15.00,-25.00
229.00,162.00,-4420.00,43.00,-3.00,-29.00
230.00,173.00,-4440.00,36.00,8.00,-32.00
209.00,162.00,-4434.00,41.00,7.00,-31.00
237.00,146.00,-4437.00,57.00,7.00,-35.00
248.00,142.00,-4437.00,38.00,-2.00,-47.00
216.00,147.00,-4431.00,30.00,6.00,-29.00
237.00,143.00,-4458.00,44.00,-5.00,-25.00
229.00,156.00,-4449.00,57.00,0.00,-25.00
236.00,160.00,-4424.00,44.00,10.00,-36.00
206.00,143.00,-4422.00,37.00,-2.00,-35.00
209.00,148.00,-4415.00,23.00,3.00,-28.00
223.00,153.00,-4437.00,40.00,4.00,-35.00
230.00,154.00,-4408.00,45.00,8.00,-29.00
220.00,157.00,-4436.00,36.00,13.00,-35.00
243.00,161.00,-4433.00,37.00,7.00,-30.00
232.00,167.00,-4427.00,35.00,8.00,-22.00
212.00,160.00,-4422.00,35.00,12.00,-23.00
218.00,154.00,-4457.00,33.00,13.00,-23.00
206.00,150.00,-4454.00,31.00,14.00,-24.00
221.00,146.00,-4446.00,33.00,7.00,-27.00
208.00,156.00,-4459.00,36.00,14.00,-25.00
239.00,137.00,-4418.00,33.00,-1.00,-19.00
240.00,140.00,-4450.00,41.00,7.00,-28.00
252.00,148.00,-4440.00,33.00,19.00,-30.00
245.00,153.00,-4456.00,39.00,-12.00,-40.00
220.00,163.00,-4453.00,33.00,5.00,-30.00
233.00,135.00,-4449.00,39.00,8.00,-19.00
229.00,167.00,-4443.00,39.00,16.00,-26.00
199.00,135.00,-4443.00,33.00,8.00,-32.00
265.00,161.00,-4408.00,35.00,5.00,-29.00
225.00,143.00,-4442.00,36.00,7.00,-33.00
219.00,159.00,-4430.00,38.00,-3.00,-39.00
237.00,157.00,-4464.00,45.00,8.00,-36.00
240.00,161.00,-4423.00,28.00,4.00,-21.00
231.00,160.00,-4453.00,37.00,4.00,-28.00
220.00,146.00,-4442.00,33.00,2.00,-34.00
225.00,148.00,-4438.00,31.00,8.00,-28.00
227.00,153.00,-4423.00,51.00,9.00,-33.00
220.00,146.00,-4451.00,26.00,2.00,-32.00
221.00,162.00,-4454.00,29.00,20.00,-28.00
212.00,163.00,-4439.00,34.00,9.00,-17.00
216.00,161.00,-4450.00,25.00,6.00,-18.00
227.00,161.00,-4411.00,53.00,7.00,-31.00
244.00,146.00,-4434.00,52.00,-2.00,-20.00
223.00,160.00,-4448.00,33.00,4.00,-19.00
217.00,164.00,-4445.00,23.00,-4.00,-19.00
237.00,148.00,-4417.00,42.00,6.00,-23.00
229.00,148.00,-4416.00,36.00,4.00,-23.00
223.00,152.00,-4440.00,44.00,6.00,-20.00
222.00,150.00,-4465.00,49.00,7.00,-16.00
250.00,167.00,-4445.00,31.00,15.00,-30.00
210.00,136.00,-4438.00,38.00,11.00,-30.00
234.00,153.00,-4426.00,43.00,-1.00,-45.00
215.00,171.00,-4408.00,35.00,15.00,-34.00
231.00,154.00,-4428.00,31.00,6.00,-31.00
205.00,150.00,-4458.00,36.00,6.00,-23.00
239.00,165.00,-4436.00,38.00,6.00,-13.00
225.00,173.00,-4443.00,24.00,10.00,-30.00
202.00,147.00,-4426.00,49.00,1.00,-26.00
215.00,139.00,-4456.00,34.00,4.00,-29.00
233.00,168.00,-4420.00,36.00,2.00,-27.00
216.00,151.00,-4432.00,27.00,13.00,-23.00
224.00,155.00,-4446.00,38.00,7.00,-39.00
223.00,161.00,-4464.00,32.00,0.00,-34.00
234.00,161.00,-4432.00,39.00,6.00,-40.00
236.00,156.00,-4423.00,48.00,8.00,-10.00
210.00,169.00,-4442.00,35.00,6.00,-18.00
237.00,140.00,-4444.00,39.00,-3.00,-32.00
244.00,144.00,-4445.00,53.00,16.00,-35.00
228.00,174.00,-4470.00,37.00,8.00,-22.00
245.00,155.00,-4433.00,37.00,2.00,-35.00
227.00,158.00,-4451.00,26.00,3.00,-12.00
222.00,145.00,-4430.00,37.00,23.00,-25.00
215.00,181.00,-4443.00,40.00,4.00,-13.00
217.00,146.00,-4455.00,43.00,9.00,-35.00
216.00,149.00,-4468.00,25.00,0.00,-26.00
222.00,158.00,-4436.00,24.00,10.00,-20.00
253.00,166.00,-4461.00,37.00,-4.00,-21.00
222.00,149.00,-4412.00,45.00,7.00,-23.00
197.00,182.00,-4404.00,33.00,3.00,-35.00
225.00,141.00,-4424.00,39.00,7.00,-23.00
240.00,143.00,-4483.00,32.00,3.00,-24.00
217.00,155.00,-4412.00,27.00,10.00,-35.00
220.00,148.00,-4427.00,42.00,10.00,-20.00
220.00,160.00,-4430.00,48.00,8.00,-30.00
215.00,146.00,-4437.00,28.00,10.00,-26.00
241.00,149.00,-4435.00,33.00,17.00,-23.00
219.00,160.00,-4421.00,40.00,14.00,-31.00
217.00,142.00,-4465.00,32.00,-3.00,-40.00
208.00,169.00,-4459.00,34.00,8.00,-22.00
213.00,165.00,-4440.00,36.00,9.00,-24.00
212.00,183.00,-4410.00,34.00,-4.00,-27.00
215.00,172.00,-4436.00,47.00,7.00,-32.00
229.00,161.00,-4423.00,36.00,5.00,-37.00
214.00,162.00,-4435.00,33.00,5.00,-36.00
204.00,171.00,-4457.00,21.00,15.00,-35.00
228.00,143.00,-4410.00,39.00,-2.00,-21.00
221.00,151.00,-4460.00,30.00,4.00,-30.00
240.00,146.00,-4456.00,51.00,3.00,-26.00
233.00,139.00,-4492.00,38.00,2.00,-19.00
241.00,144.00,-4436.00,34.00,6.00,-28.00
216.00,151.00,-4441.00,41.00,-1.00,-32.00
230.00,139.00,-4445.00,24.00,-6.00,-17.00
222.00,144.00,-4450.00,25.00,12.00,-27.00
230.00,164.00,-4449.00,40.00,17.00,-34.00
220.00,184.00,-4466.00,43.00,2.00,-35.00
242.00,162.00,-4461.00,43.00,1.00,-35.00
225.00,157.00,-4446.00,38.00,1.00,-25.00
235.00,152.00,-4441.00,29.00,7.00,-36.00
217.00,139.00,-4481.00,42.00,15.00,-27.00
208.00,157.00,-4434.00,38.00,16.00,-21.00
222.00,158.00,-4454.00,35.00,8.00,-34.00
258.00,169.00,-4460.00,35.00,9.00,-25.00
229.00,153.00,-4424.00,32.00,3.00,-17.00
219.00,148.00,-4469.00,45.00,11.00,-12.00
206.00,178.00,-4405.00,31.00,2.00,-14.00
203.00,155.00,-4422.00,28.00,11.00,-20.00
199.00,167.00,-4415.00,53.00,10.00,-23.00
227.00,136.00,-4451.00,42.00,9.00,-30.00
204.00,158.00,-4440.00,39.00,8.00,-22.00
234.00,130.00,-4434.00,49.00,14.00,-24.00
222.00,155.00,-4447.00,36.00,2.00,-19.00
221.00,160.00,-4404.00,44.00,14.00,-25.00
236.00,124.00,-4426.00,31.00,5.00,-24.00
204.00,155.00,-4434.00,55.00,-2.00,-29.00
225.00,159.00,-4423.00,47.00,-5.00,-20.00
242.00,137.00,-4444.00,38.00,5.00,-17.00
199.00,146.00,-4413.00,34.00,8.00,-29.00
209.00,133.00,-4414.00,47.00,5.00,-25.00
209.00,176.00,-4410.00,34.00,-4.00,-26.00
233.00,151.00,-4434.00,20.00,9.00,-25.00
226.00,187.00,-4443.00,31.00,7.00,-13.00
207.00,142.00,-4445.00,23.00,12.00,-25.00
243.00,171.00,-4409.00,33.00,12.00,-22.00
232.00,159.00,-4419.00,27.00,11.00,-42.00
216.00,167.00,-4420.00,36.00,5.00,-37.00
250.00,163.00,-4457.00,44.00,6.00,-25.00
228.00,166.00,-4453.00,35.00,12.00,-28.00
210.00,164.00,-4431.00,24.00,13.00,-37.00
196.00,164.00,-4397.00,41.00,8.00,-13.00
221.00,166.00,-4423.00,44.00,10.00,-34.00
232.00,156.00,-4414.00,28.00,-1.00,-22.00
238.00,153.00,-4419.00,38.00,10.00,-24.00
226.00,139.00,-4449.00,43.00,9.00,-18.00
226.00,180.00,-4433.00,29.00,16.00,-36.00
219.00,167.00,-4411.00,31.00,13.00,-32.00
204.00,153.00,-4426.00,41.00,11.00,-13.00
213.00,140.00,-4445.00,37.00,8.00,-24.00
213.00,174.00,-4471.00,49.00,10.00,-37.00
221.00,169.00,-4491.00,45.00,4.00,-35.00
222.00,167.00,-4454.00,36.00,-6.00,-27.00
210.00,160.00,-4413.00,43.00,18.00,-17.00
230.00,164.00,-4443.00,47.00,3.00,-42.00
241.00,179.00,-4459.00,44.00,10.00,-23.00
235.00,154.00,-4401.00,37.00,12.00,-27.00
207.00,144.00,-4436.00,35.00,10.00,-22.00
252.00,148.00,-4439.00,32.00,-1.00,-30.00
220.00,153.00,-4446.00,41.00,6.00,-25.00
217.00,164.00,-4444.00,44.00,-1.00,-30.00
225.00,149.00,-4450.00,55.00,3.00,-20.00
224.00,159.00,-4447.00,28.00,11.00,-23.00
230.00,151.00,-4424.00,49.00,7.00,-23.00
216.00,160.00,-4419.00,44.00,7.00,-29.00
245.00,158.00,-4419.00,35.00,1.00,-32.00
236.00,155.00,-4469.00,23.00,11.00,-9.00
207.00,165.00,-4452.00,53.00,7.00,-28.00
253.00,158.00,-4443.00,49.00,-4.00,-30.00
182.00,147.00,-4431.00,41.00,12.00,-29.00
209.00,161.00,-4437.00,49.00,3.00,-33.00
239.00,154.00,-4412.00,38.00,4.00,-39.00
235.00,151.00,-4461.00,48.00,13.00,-33.00
219.00,143.00,-4457.00,35.00,4.00,-36.00
197.00,129.00,-4421.00,38.00,-10.00,-28.00
263.00,167.00,-4425.00,47.00,-1.00,-36.00
220.00,155.00,-4436.00,44.00,16.00,-36.00
250.00,159.00,-4407.00,49.00,3.00,-23.00
216.00,137.00,-4467.00,39.00,10.00,-31.00
232.00,153.00,-4439.00,32.00,2.00,-26.00
223.00,153.00,-4444.00,42.00,7.00,-33.00
233.00,160.00,-4430.00,35.00,-2.00,-33.00
218.00,139.00,-4457.00,36.00,6.00,-39.00
228.00,140.00,-4434.00,37.00,7.00,-33.00
244.00,159.00,-4432.00,31.00,5.00,-29.00
231.00,155.00,-4428.00,32.00,20.00,-43.00
222.00,159.00,-4464.00,43.00,4.00,-30.00
231.00,136.00,-4452.00,44.00,5.00,-23.00
226.00,146.00,-4446.00,34.00,-2.00,-36.00
254.00,152.00,-4441.00,64.00,2.00,-36.00
224.00,156.00,-4422.00,46.00,1.00,-24.00
233.00,164.00,-4406.00,34.00,9.00,-27.00
222.00,154.00,-4444.00,36.00,2.00,-31.00
231.00,149.00,-4432.00,27.00,1.00,-33.00
223.00,161.00,-4449.00,46.00,2.00,-21.00
238.00,157.00,-4420.00,28.00,0.00,-32.00
210.00,163.00,-4422.00,32.00,18.00,-33.00
226.00,151.00,-4441.00,44.00,7.00,-27.00
240.00,144.00,-4452.00,34.00,-2.00,-15.00
210.00,143.00,-4428.00,42.00,5.00,-22.00
251.00,164.00,-4454.00,41.00,5.00,-19.00
222.00,161.00,-4483.00,38.00,16.00,-24.00
208.00,127.00,-4467.00,35.00,9.00,-21.00
242.00,157.00,-4425.00,39.00,13.00,-34.00
191.00,143.00,-4418.00,33.00,15.00,-37.00
219.00,167.00,-4436.00,23.00,0.00,-26.00
209.00,161.00,-4445.00,37.00,7.00,-34.00
214.00,151.00,-4442.00,27.00,4.00,-24.00
203.00,135.00,-4454.00,46.00,4.00,-33.00
220.00,150.00,-4440.00,43.00,-4.00,-25.00
237.00,133.00,-4436.00,31.00,-7.00,-39.00
213.00,160.00,-4429.00,34.00,1.00,-30.00
223.00,147.00,-4433.00,44.00,10.00,-8.00
215.00,138.00,-4414.00,32.00,15.00,-20.00
225.00,146.00,-4456.00,18.00,-11.00,-23.00
235.00,128.00,-4438.00,46.00,5.00,-30.00
225.00,164.00,-4431.00,47.00,5.00,-26.00
222.00,161.00,-4447.00,17.00,7.00,-25.00
227.00,148.00,-4442.00,43.00,4.00,-22.00
252.00,142.00,-4445.00,42.00,5.00,-13.00
248.00,140.00,-4444.00,40.00,8.00,-15.00
238.00,156.00,-4424.00,33.00,13.00,-26.00
223.00,163.00,-4485.00,33.00,7.00,-24.00
216.00,158.00,-4420.00,39.00,0.00,-24.00
222.00,160.00,-4436.00,35.00,8.00,-20.00
215.00,169.00,-4445.00,42.00,-2.00,-25.00
216.00,161.00,-4435.00,16.00,0.00,-24.00
233.00,179.00,-4445.00,49.00,15.00,-33.00
220.00,143.00,-4430.00,33.00,4.00,-32.00
208.00,151.00,-4453.00,40.00,-1.00,-20.00
213.00,157.00,-4423.00,34.00,1.00,-32.00
231.00,150.00,-4419.00,35.00,2.00,-22.00
236.00,160.00,-4429.00,34.00,-2.00,-31.00
194.00,137.00,-4406.00,39.00,8.00,-27.00
209.00,171.00,-4442.00,34.00,2.00,-28.00
209.00,140.00,-4438.00,27.00,-6.00,-18.00
238.00,166.00,-4427.00,46.00,-4.00,-31.00
225.00,155.00,-4428.00,34.00,10.00,-34.00
230.00,150.00,-4443.00,30.00,-2.00,-23.00
235.00,136.00,-4462.00,30.00,3.00,-21.00
226.00,150.00,-4427.00,31.00,13.00,-27.00
210.00,157.00,-4440.00,40.00,-1.00,-36.00
221.00,160.00,-4425.00,36.00,9.00,-21.00
232.00,148.00,-4424.00,30.00,3.00,-36.00
207.00,151.00,-4416.00,33.00,0.00,-28.00
228.00,155.00,-4446.00,43.00,7.00,-35.00
225.00,118.00,-4435.00,47.00,13.00,-28.00
203.00,149.00,-4429.00,30.00,14.00,-21.00
211.00,156.00,-4439.00,40.00,16.00,-29.00
226.00,153.00,-4421.00,28.00,1.00,-28.00
224.00,146.00,-4462.00,19.00,-2.00,-29.00
207.00,156.00,-4439.00,43.00,-2.00,-33.00
201.00,163.00,-4432.00,38.00,2.00,-35.00
208.00,143.00,-4422.00,39.00,7.00,-24.00
228.00,139.00,-4433.00,41.00,1.00,-32.00
232.00,166.00,-4468.00,41.00,9.00,-37.00
223.00,148.00,-4432.00,38.00,0.00,-27.00
225.00,163.00,-4454.00,40.00,12.00,-25.00
201.00,156.00,-4446.00,44.00,21.00,-33.00
241.00,164.00,-4399.00,27.00,11.00,-38.00
225.00,168.00,-4425.00,43.00,7.00,-38.00
241.00,159.00,-4443.00,23.00,6.00,-43.00
220.00,138.00,-4423.00,36.00,7.00,-35.00
233.00,141.00,-4448.00,16.00,2.00,-23.00
232.00,159.00,-4444.00,47.00,6.00,-25.00
209.00,143.00,-4413.00,29.00,2.00,-26.00
240.00,180.00,-4436.00,43.00,5.00,-24.00
241.00,152.00,-4459.00,28.00,15.00,-30.00
240.00,135.00,-4459.00,45.00,10.00,-36.00
224.00,138.00,-4451.00,42.00,6.00,-15.00
210.00,159.00,-4458.00,43.00,11.00,-17.00
226.00,148.00,-4457.00,40.00,6.00,-17.00
225.00,144.00,-4440.00,33.00,8.00,-37.00
204.00,148.00,-4445.00,34.00,1.00,-20.00
246.00,144.00,-4434.00,35.00,-2.00,-13.00
211.00,158.00,-4409.00,56.00,-1.00,-32.00
209.00,142.00,-4441.00,23.00,7.00,-19.00
236.00,148.00,-4431.00,44.00,13.00,-38.00
243.00,144.00,-4434.00,38.00,6.00,-31.00
241.00,156.00,-4469.00,35.00,5.00,-30.00
225.00,153.00,-4456.00,38.00,7.00,-24.00
227.00,158.00,-4423.00,46.00,14.00,-25.00
236.00,142.00,-4435.00,35.00,6.00,-21.00
239.00,151.00,-4446.00,41.00,7.00,-28.00
238.00,143.00,-4456.00,45.00,-3.00,-22.00
236.00,141.00,-4421.00,32.00,3.00,-32.00
197.00,164.00,-4417.00,35.00,8.00,-22.00
230.00,141.00,-4427.00,39.00,7.00,-25.00
229.00,147.00,-4445.00,39.00,4.00,-27.00
249.00,162.00,-4432.00,46.00,17.00,-19.00
222.00,127.00,-4448.00,32.00,12.00,-36.00
232.00,144.00,-4427.00,36.00,9.00,-22.00
220.00,166.00,-4452.00,38.00,0.00,-28.00
228.00,146.00,-4410.00,39.00,8.00,-17.00
211.00,163.00,-4422.00,39.00,8.00,-29.00
238.00,157.00,-4473.00,47.00,3.00,-43.00
246.00,130.00,-4455.00,40.00,-3.00,-33.00
232.00,153.00,-4437.00,38.00,-5.00,-18.00
200.00,146.00,-4429.00,36.00,13.00,-32.00
216.00,155.00,-4434.00,32.00,1.00,-35.00
243.00,158.00,-4414.00,28.00,13.00,-20.00
235.00,155.00,-4421.00,29.00,7.00,-32.00
244.00,130.00,-4446.00,51.00,3.00,-15.00
258.00,160.00,-4427.00,55.00,15.00,-24.00
211.00,162.00,-4427.00,37.00,3.00,-26.00
213.00,149.00,-4451.00,37.00,13.00,-11.00
229.00,155.00,-4447.00,36.00,11.00,-36.00
235.00,147.00,-4432.00,31.00,2.00,-28.00
251.00,170.00,-4420.00,41.00,0.00,-23.00
220.00,173.00,-4435.00,53.00,8.00,-19.00
233.00,138.00,-4420.00,31.00,-8.00,-25.00
234.00,159.00,-4453.00,32.00,-8.00,-21.00
212.00,127.00,-4453.00,36.00,5.00,-16.00
246.00,164.00,-4432.00,45.00,8.00,-38.00
260.00,168.00,-4394.00,41.00,13.00,-35.00
218.00,153.00,-4446.00,43.00,-4.00,-34.00
220.00,131.00,-4405.00,40.00,-3.00,-39.00
227.00,130.00,-4438.00,46.00,9.00,-27.00
205.00,148.00,-4420.00,38.00,14.00,-32.00
232.00,140.00,-4469.00,38.00,20.00,-11.00
201.00,156.00,-4430.00,34.00,12.00,-29.00
229.00,135.00,-4447.00,36.00,2.00,-25.00
239.00,148.00,-4401.00,36.00,19.00,-34.00
229.00,143.00,-4430.00,38.00,-9.00,-23.00
224.00,140.00,-4433.00,46.00,16.00,-27.00
243.00,177.00,-4458.00,39.00,10.00,-26.00
206.00,145.00,-4417.00,49.00,5.00,-35.00
221.00,144.00,-4427.00,51.00,22.00,-29.00
221.00,152.00,-4446.00,46.00,3.00,-24.00
250.00,149.00,-4462.00,27.00,13.00,-30.00
219.00,145.00,-4423.00,46.00,-3.00,-43.00
228.00,155.00,-4431.00,47.00,-1.00,-17.00
233.00,183.00,-4396.00,40.00,6.00,-30.00
242.00,155.00,-4448.00,41.00,2.00,-34.00
225.00,134.00,-4425.00,34.00,13.00,-28.00
215.00,150.00,-4403.00,40.00,12.00,-12.00
252.00,168.00,-4439.00,18.00,7.00,-21.00
228.00,164.00,-4422.00,27.00,6.00,-30.00
230.00,159.00,-4448.00,33.00,1.00,-19.00
229.00,164.00,-4394.00,16.00,10.00,-43.00
223.00,164.00,-4439.00,29.00,4.00,-29.00
196.00,153.00,-4413.00,51.00,0.00,-25.00
232.00,164.00,-4450.00,28.00,8.00,-40.00
237.00,153.00,-4436.00,29.00,9.00,-38.00
219.00,141.00,-4434.00,28.00,-5.00,-25.00
222.00,157.00,-4416.00,52.00,-12.00,-29.00
184.00,142.00,-4425.00,40.00,4.00,-24.00
211.00,147.00,-4429.00,30.00,7.00,-16.00
240.00,175.00,-4441.00,38.00,6.00,-27.00
217.00,165.00,-4454.00,44.00,14.00,-29.00
222.00,146.00,-4434.00,30.00,12.00,-26.00
228.00,170.00,-4440.00,37.00,-2.00,-36.00
229.00,147.00,-4461.00,29.00,10.00,-25.00
223.00,161.00,-4417.00,21.00,-4.00,-21.00
257.00,175.00,-4433.00,44.00,4.00,-23.00
243.00,173.00,-4438.00,30.00,2.00,-23.00
222.00,176.00,-4452.00,39.00,3.00,-28.00
238.00,153.00,-4440.00,22.00,4.00,-25.00
267.00,153.00,-4438.00,41.00,0.00,-15.00
222.00,149.00,-4423.00,18.00,-2.00,-29.00
222.00,142.00,-4465.00,39.00,11.00,-34.00
218.00,140.00,-4444.00,47.00,0.00,-20.00
222.00,149.00,-4449.00,48.00,5.00,-24.00
225.00,138.00,-4448.00,48.00,1.00,-28.00
221.00,156.00,-4392.00,41.00,-6.00,-30.00
245.00,175.00,-4445.00,30.00,15.00,-27.00
218.00,144.00,-4436.00,39.00,6.00,-33.00
233.00,169.00,-4421.00,34.00,-5.00,-35.00
226.00,141.00,-4442.00,30.00,10.00,-25.00
246.00,161.00,-4418.00,39.00,11.00,-29.00
255.00,140.00,-4474.00,46.00,14.00,-26.00
236.00,161.00,-4467.00,43.00,-4.00,-20.00
240.00,152.00,-4442.00,36.00,-2.00,-23.00
223.00,166.00,-4452.00,33.00,-8.00,-22.00
230.00,153.00,-4422.00,38.00,1.00,-23.00
229.00,165.00,-4433.00,34.00,1.00,-22.00
228.00,145.00,-4451.00,42.00,6.00,-23.00
270.00,164.00,-4453.00,37.00,8.00,-36.00
222.00,137.00,-4430.00,27.00,-1.00,-36.00
240.00,171.00,-4464.00,32.00,-1.00,-39.00
212.00,173.00,-4418.00,46.00,0.00,-16.00
222.00,157.00,-4434.00,44.00,14.00,-22.00
243.00,152.00,-4426.00,31.00,5.00,-32.00
266.00,153.00,-4458.00,46.00,4.00,-35.00
249.00,146.00,-4402.00,27.00,16.00,-23.00
226.00,146.00,-4447.00,46.00,-6.00,-16.00
218.00,178.00,-4450.00,45.00,7.00,-24.00
201.00,154.00,-4415.00,36.00,8.00,-26.00
214.00,144.00,-4431.00,47.00,-2.00,-20.00
229.00,144.00,-4406.00,44.00,3.00,-20.00
239.00,149.00,-4440.00,36.00,6.00,-34.00
225.00,144.00,-4434.00,33.00,8.00,-31.00
211.00,162.00,-4455.00,34.00,18.00,-25.00
208.00,149.00,-4399.00,33.00,4.00,-33.00
245.00,157.00,-4438.00,36.00,10.00,-16.00
202.00,163.00,-4459.00,43.00,5.00,-26.00
223.00,140.00,-4469.00,36.00,14.00,-15.00
234.00,146.00,-4408.00,29.00,8.00,-34.00
211.00,160.00,-4415.00,38.00,3.00,-14.00
230.00,161.00,-4451.00,39.00,-2.00,-22.00
226.00,142.00,-4432.00,46.00,4.00,-37.00
236.00,144.00,-4419.00,32.00,13.00,-27.00
239.00,158.00,-4437.00,38.00,3.00,-34.00
220.00,141.00,-4463.00,52.00,-1.00,-33.00
215.00,147.00,-4422.00,34.00,-10.00,-39.00
233.00,176.00,-4443.00,46.00,12.00,-40.00
198.00,172.00,-4460.00,29.00,-16.00,-16.00
280.00,161.00,-4386.00,58.00,33.00,-19.00
178.00,138.00,-4483.00,54.00,-18.00,-31.00
228.00,180.00,-4486.00,43.00,-5.00,-33.00
248.00,152.00,-4402.00,34.00,33.00,-36.00
198.00,119.00,-4462.00,25.00,-21.00,-14.00
211.00,157.00,-4418.00,25.00,14.00,-41.00
260.00,171.00,-4427.00,26.00,43.00,-12.00
198.00,171.00,-4437.00,31.00,-27.00,-27.00
217.00,143.00,-4415.00,44.00,21.00,-38.00
272.00,171.00,-4410.00,39.00,12.00,-22.00
190.00,149.00,-4434.00,27.00,-16.00,-43.00
222.00,170.00,-4440.00,47.00,30.00,-16.00
244.00,162.00,-4452.00,37.00,19.00,-23.00
211.00,150.00,-4447.00,42.00,-21.00,-34.00
264.00,144.00,-4448.00,30.00,26.00,-34.00
218.00,135.00,-4444.00,29.00,4.00,-6.00
209.00,147.00,-4431.00,47.00,-13.00,-38.00
249.00,145.00,-4434.00,35.00,20.00,-28.00
213.00,147.00,-4445.00,37.00,1.00,-8.00
206.00,150.00,-4484.00,40.00,-11.00,-28.00
233.00,152.00,-4420.00,28.00,21.00,-27.00
247.00,162.00,-4422.00,38.00,5.00,-28.00
241.00,148.00,-4443.00,30.00,1.00,-35.00
228.00,148.00,-4441.00,36.00,20.00,-23.00
215.00,154.00,-4412.00,26.00,5.00,-31.00
235.00,152.00,-4443.00,36.00,-2.00,-41.00
208.00,159.00,-4443.00,38.00,13.00,-18.00
200.00,165.00,-4430.00,22.00,-4.00,-31.00
206.00,143.00,-4445.00,34.00,13.00,-34.00
241.00,162.00,-4461.00,34.00,19.00,-30.00
231.00,150.00,-4473.00,35.00,3.00,-25.00
208.00,154.00,-4440.00,53.00,-2.00,-24.00
233.00,157.00,-4453.00,43.00,11.00,-24.00
250.00,143.00,-4439.00,28.00,-4.00,-31.00
225.00,157.00,-4436.00,38.00,8.00,-36.00
233.00,179.00,-4438.00,41.00,3.00,-23.00
225.00,162.00,-4443.00,37.00,1.00,-25.00
186.00,163.00,-4419.00,29.00,13.00,-37.00
231.00,167.00,-4454.00,38.00,12.00,-19.00
210.00,164.00,-4468.00,37.00,5.00,-36.00
218.00,158.00,-4448.00,40.00,0.00,-35.00
235.00,170.00,-4467.00,31.00,10.00,-16.00
227.00,152.00,-4408.00,47.00,7.00,-20.00
227.00,142.00,-4449.00,27.00,3.00,-35.00
240.00,139.00,-4456.00,37.00,10.00,-16.00
221.00,157.00,-4435.00,38.00,-10.00,-43.00
213.00,157.00,-4420.00,35.00,0.00,-36.00
212.00,170.00,-4455.00,31.00,12.00,-34.00
232.00,160.00,-4421.00,32.00,9.00,-38.00
216.00,169.00,-4421.00,49.00,-4.00,-29.00
246.00,152.00,-4468.00,28.00,10.00,-28.00
238.00,160.00,-4444.00,42.00,1.00,-17.00
204.00,163.00,-4440.00,44.00,19.00,-29.00
211.00,146.00,-4439.00,39.00,-2.00,-19.00
210.00,159.00,-4448.00,26.00,2.00,-25.00
210.00,168.00,-4454.00,34.00,7.00,-20.00
218.00,182.00,-4427.00,35.00,21.00,-23.00
218.00,151.00,-4403.00,50.00,7.00,-29.00
225.00,181.00,-4430.00,20.00,0.00,-32.00
230.00,138.00,-4468.00,52.00,8.00,-30.00
218.00,148.00,-4419.00,32.00,-1.00,-33.00
225.00,150.00,-4422.00,42.00,16.00,-27.00
248.00,159.00,-4402.00,25.00,11.00,-19.00
237.00,149.00,-4423.00,36.00,10.00,-15.00
215.00,186.00,-4443.00,34.00,-9.00,-36.00
212.00,156.00,-4436.00,43.00,1.00,-32.00
229.00,165.00,-4487.00,48.00,-1.00,-20.00
213.00,173.00,-4477.00,13.00,-6.00,-16.00
223.00,167.00,-4447.00,21.00,4.00,-26.00
211.00,150.00,-4410.00,34.00,-6.00,-34.00
240.00,166.00,-4430.00,49.00,11.00,-27.00
230.00,166.00,-4430.00,20.00,9.00,-22.00
202.00,150.00,-4477.00,45.00,4.00,-28.00
252.00,174.00,-4443.00,25.00,-4.00,-20.00
239.00,173.00,-4421.00,36.00,8.00,-17.00
203.00,168.00,-4429.00,33.00,-6.00,-29.00
222.00,152.00,-4453.00,42.00,8.00,-31.00
230.00,152.00,-4445.00,48.00,31.00,-30.00
206.00,149.00,-4491.00,44.00,-15.00,-30.00
228.00,161.00,-4417.00,45.00,16.00,-37.00
246.00,160.00,-4443.00,33.00,4.00,-35.00
231.00,151.00,-4465.00,30.00,-8.00,-18.00
248.00,133.00,-4433.00,32.00,10.00,-24.00
228.00,172.00,-4444.00,48.00,3.00,-16.00
210.00,144.00,-4448.00,29.00,-2.00,-23.00
236.00,139.00,-4439.00,38.00,34.00,-25.00
216.00,180.00,-4449.00,40.00,-8.00,-23.00
203.00,136.00,-4423.00,35.00,0.00,-47.00
245.00,160.00,-4435.00,45.00,21.00,-33.00
231.00,167.00,-4477.00,33.00,-5.00,-25.00
251.00,183.00,-4443.00,61.00,8.00,-38.00
217.00,169.00,-4473.00,44.00,25.00,-17.00
209.00,153.00,-4428.00,22.00,21.00,-21.00
223.00,158.00,-4434.00,35.00,23.00,-31.00
217.00,132.00,-4464.00,30.00,25.00,-25.00
241.00,152.00,-4436.00,39.00,20.00,-36.00
242.00,167.00,-4443.00,31.00,25.00,-32.00
229.00,155.00,-4426.00,36.00,25.00,-31.00
236.00,146.00,-4435.00,30.00,20.00,-22.00
223.00,147.00,-4443.00,40.00,37.00,-27.00
216.00,131.00,-4432.00,24.00,27.00,-19.00
155.00,141.00,-4768.00,-19.00,100.00,-42.00
295.00,45.00,-4234.00,-49.00,-62.00,-60.00
297.00,74.00,-4416.00,196.00,121.00,-13.00
262.00,126.00,-4358.00,-5.00,25.00,-45.00
116.00,96.00,-4458.00,107.00,44.00,-46.00
479.00,92.00,-4499.00,77.00,41.00,-73.00
274.00,6.00,-4592.00,6.00,156.00,-167.00
467.00,30.00,-4262.00,108.00,120.00,-264.00
462.00,27.00,-4247.00,-46.00,151.00,-482.00
497.00,-77.00,-4796.00,57.00,197.00,-573.00
511.00,-31.00,-4223.00,210.00,130.00,-688.00
148.00,365.00,-4205.00,-78.00,157.00,-761.00
273.00,210.00,-4537.00,24.00,147.00,-715.00
209.00,164.00,-4497.00,62.00,239.00,-758.00
223.00,141.00,-4538.00,53.00,201.00,-723.00
175.00,107.00,-4560.00,39.00,412.00,-816.00
177.00,144.00,-4638.00,-79.00,523.00,-829.00
324.00,142.00,-4816.00,177.00,779.00,-799.00
338.00,204.00,-4435.00,282.00,703.00,-745.00
189.00,338.00,-4247.00,-88.00,786.00,-742.00
210.00,235.00,-4499.00,-9.00,848.00,-595.00
501.00,172.00,-4844.00,188.00,1159.00,-448.00
383.00,91.00,-4702.00,217.00,1271.00,-458.00
311.00,161.00,-4770.00,55.00,1484.00,-424.00
325.00,249.00,-4586.00,-30.00,1546.00,-320.00
253.00,186.00,-4546.00,191.00,1702.00,-120.00
254.00,251.00,-4349.00,114.00,1798.00,-26.00
201.00,543.00,-4574.00,46.00,1925.00,109.00
203.00,491.00,-4462.00,0.00,1916.00,257.00
489.00,508.00,-4919.00,50.00,2198.00,415.00
492.00,347.00,-4564.00,168.00,2338.00,502.00
574.00,143.00,-4527.00,306.00,2485.00,616.00
450.00,217.00,-4382.00,129.00,2537.00,642.00
567.00,142.00,-4713.00,186.00,2686.00,692.00
547.00,-66.00,-4517.00,298.00,2735.00,703.00
384.00,-55.00,-4375.00,178.00,2924.00,666.00
430.00,-133.00,-4773.00,119.00,2925.00,662.00
382.00,-196.00,-4423.00,227.00,2958.00,667.00
203.00,-501.00,-4351.00,411.00,2939.00,653.00
141.00,-270.00,-4316.00,238.00,2934.00,585.00
253.00,-169.00,-4502.00,232.00,2879.00,441.00
70.00,-221.00,-4536.00,138.00,2631.00,245.00
73.00,-342.00,-4747.00,261.00,2802.00,-15.00
152.00,-171.00,-4271.00,272.00,2759.00,-232.00
209.00,-70.00,-4292.00,310.00,2892.00,-383.00
396.00,58.00,-4568.00,278.00,2937.00,-523.00
840.00,242.00,-4002.00,241.00,2887.00,-537.00
1002.00,371.00,-4560.00,241.00,3147.00,-535.00
1207.00,389.00,-4185.00,355.00,3094.00,-506.00
1304.00,480.00,-4312.00,346.00,3289.00,-416.00
1379.00,344.00,-4316.00,382.00,3262.00,-320.00
1375.00,309.00,-4071.00,194.00,3339.00,-230.00
1612.00,129.00,-4573.00,191.00,3276.00,-154.00
1182.00,84.00,-3914.00,391.00,3204.00,25.00
1389.00,268.00,-4204.00,129.00,3087.00,161.00
1245.00,367.00,-4024.00,77.00,3014.00,222.00
1348.00,456.00,-3603.00,94.00,2862.00,327.00
1580.00,683.00,-4208.00,5.00,2820.00,455.00
1231.00,361.00,-3637.00,208.00,2778.00,612.00
1092.00,186.00,-3380.00,6.00,2699.00,598.00
1839.00,97.00,-4472.00,-290.00,2807.00,610.00
1546.00,179.00,-4331.00,-219.00,2711.00,677.00
1506.00,20.00,-4556.00,94.00,2612.00,818.00
1235.00,-19.00,-3565.00,-16.00,2546.00,820.00
1350.00,13.00,-4351.00,-164.00,2495.00,734.00
1562.00,-272.00,-4160.00,122.00,2455.00,756.00
1510.00,-31.00,-4506.00,-45.00,2215.00,677.00
1541.00,114.00,-4944.00,-56.00,2043.00,583.00
1362.00,-312.00,-4109.00,158.00,1548.00,363.00
1459.00,-96.00,-4304.00,66.00,1224.00,77.00
1694.00,110.00,-4583.00,186.00,1594.00,-247.00
1641.00,153.00,-4915.00,224.00,2462.00,-282.00
1774.00,110.00,-4476.00,256.00,1992.00,-10.00
1375.00,-265.00,-4189.00,273.00,1479.00,20.00
1173.00,-225.00,-4006.00,218.00,1615.00,-2.00
1810.00,1.00,-4676.00,126.00,1635.00,7.00
1804.00,116.00,-4049.00,214.00,1079.00,8.00
1420.00,-52.00,-3878.00,31.00,242.00,130.00
1258.00,32.00,-3513.00,-80.00,893.00,-135.00
1762.00,142.00,-3589.00,108.00,1835.00,-170.00
1549.00,301.00,-3951.00,252.00,959.00,43.00
1274.00,250.00,-3740.00,368.00,608.00,-52.00
1090.00,304.00,-4144.00,-58.00,1125.00,-279.00
1506.00,173.00,-3591.00,382.00,805.00,-443.00
2059.00,294.00,-4273.00,156.00,1157.00,-489.00
2241.00,-228.00,-4124.00,291.00,729.00,-332.00
1788.00,-32.00,-3985.00,148.00,251.00,-359.00
1281.00,56.00,-3724.00,308.00,376.00,-305.00
1733.00,81.00,-4433.00,406.00,366.00,-152.00
1782.00,235.00,-3961.00,178.00,288.00,-414.00
1515.00,133.00,-3814.00,-18.00,376.00,-504.00
1333.00,274.00,-4147.00,7.00,-256.00,-268.00
1563.00,185.00,-4050.00,254.00,679.00,-308.00
1608.00,12.00,-4551.00,82.00,252.00,-291.00
1999.00,178.00,-3393.00,81.00,-294.00,-108.00
1825.00,185.00,-4285.00,-22.00,-119.00,-168.00
1659.00,70.00,-4493.00,85.00,10.00,-131.00
1899.00,-39.00,-4373.00,413.00,3.00,-68.00
2102.00,148.00,-4110.00,162.00,-504.00,-104.00
1598.00,-53.00,-3539.00,-47.00,-653.00,-325.00
1648.00,163.00,-3982.00,11.00,-341.00,-347.00
1507.00,-177.00,-4225.00,488.00,-526.00,-369.00
1233.00,46.00,-3976.00,80.00,-187.00,-467.00
1605.00,539.00,-3422.00,-105.00,-373.00,-207.00
1795.00,443.00,-3933.00,17.00,-720.00,-129.00
1605.00,142.00,-4722.00,-171.00,-516.00,38.00
2035.00,129.00,-4157.00,32.00,-263.00,-17.00
2013.00,-103.00,-4343.00,-11.00,-157.00,-43.00
2023.00,315.00,-4397.00,-394.00,-727.00,40.00
1614.00,-244.00,-4513.00,144.00,-709.00,46.00
1360.00,32.00,-4585.00,-99.00,-267.00,-136.00
1490.00,170.00,-4391.00,224.00,144.00,-99.00
1413.00,-107.00,-4088.00,173.00,-376.00,9.00
1313.00,-70.00,-4770.00,172.00,-654.00,-86.00
1293.00,-64.00,-3372.00,-56.00,-771.00,24.00
1033.00,169.00,-4124.00,-159.00,-436.00,-131.00
1514.00,271.00,-4161.00,88.00,493.00,-180.00
2148.00,99.00,-5102.00,151.00,767.00,133.00
1942.00,480.00,-4298.00,269.00,52.00,54.00
1513.00,97.00,-4646.00,-77.00,119.00,180.00
1626.00,195.00,-4814.00,-40.00,5.00,161.00
1338.00,330.00,-3946.00,-36.00,-45.00,301.00
1418.00,138.00,-4123.00,-105.00,222.00,241.00
1820.00,186.00,-4745.00,-104.00,531.00,192.00
1230.00,149.00,-3977.00,17.00,121.00,329.00
1623.00,-47.00,-4543.00,-143.00,288.00,138.00
1732.00,110.00,-4075.00,-265.00,-51.00,328.00
1277.00,66.00,-3663.00,329.00,313.00,-62.00
1555.00,49.00,-4168.00,-384.00,1024.00,220.00
1417.00,204.00,-4070.00,-44.00,158.00,70.00
1186.00,20.00,-3950.00,-33.00,-54.00,141.00
1472.00,223.00,-4436.00,-142.00,451.00,246.00
1440.00,-21.00,-4115.00,22.00,163.00,83.00
1234.00,-53.00,-3873.00,222.00,169.00,144.00
1202.00,-111.00,-3864.00,44.00,481.00,55.00
1607.00,101.00,-4464.00,59.00,638.00,-56.00
1588.00,99.00,-3978.00,-138.00,-91.00,200.00
1515.00,50.00,-4240.00,44.00,-161.00,-28.00
1559.00,51.00,-3828.00,98.00,-183.00,8.00
1616.00,187.00,-4370.00,-56.00,320.00,-88.00
1544.00,11.00,-4208.00,6.00,-1.00,-296.00
1636.00,-10.00,-4046.00,88.00,-77.00,-18.00
1482.00,68.00,-4223.00,-19.00,-50.00,-251.00
1490.00,12.00,-3872.00,340.00,-166.00,-146.00
1494.00,127.00,-4317.00,-110.00,-31.00,-32.00
1931.00,9.00,-4000.00,129.00,-445.00,-191.00
1599.00,118.00,-4119.00,46.00,-310.00,128.00
1476.00,162.00,-3988.00,-46.00,-349.00,-179.00
1509.00,-62.00,-4430.00,6.00,-70.00,-3.00
1495.00,283.00,-3919.00,-316.00,-230.00,147.00
1382.00,14.00,-4714.00,-24.00,-236.00,59.00
1618.00,15.00,-4007.00,-80.00,-383.00,184.00
1465.00,37.00,-4181.00,212.00,236.00,-142.00
1312.00,-101.00,-4285.00,-81.00,454.00,179.00
1601.00,281.00,-4447.00,-64.00,132.00,19.00
1639.00,17.00,-3935.00,-231.00,-131.00,3.00
1484.00,0.00,-4202.00,-1.00,-49.00,324.00
1587.00,231.00,-4051.00,103.00,-85.00,93.00
1525.00,30.00,-4192.00,38.00,297.00,7.00
1633.00,107.00,-4076.00,20.00,488.00,36.00
1691.00,122.00,-4246.00,-1.00,62.00,70.00
1630.00,96.00,-4158.00,57.00,-343.00,177.00
1562.00,47.00,-4142.00,-18.00,-167.00,166.00
1593.00,66.00,-4225.00,-113.00,-164.00,91.00
1575.00,-69.00,-4243.00,26.00,-28.00,-41.00
1559.00,-19.00,-4182.00,-42.00,257.00,-5.00
1598.00,111.00,-4239.00,101.00,58.00,-39.00
1539.00,109.00,-4230.00,37.00,-142.00,18.00
1604.00,158.00,-4245.00,-56.00,-155.00,25.00
1555.00,189.00,-4112.00,21.00,-160.00,-120.00
1481.00,29.00,-4108.00,26.00,149.00,-7.00
1616.00,81.00,-4291.00,81.00,166.00,-53.00
1629.00,-9.00,-4253.00,-23.00,48.00,13.00
1677.00,-34.00,-4169.00,-91.00,-72.00,140.00
1754.00,-27.00,-4140.00,28.00,-180.00,132.00
1561.00,86.00,-3993.00,-189.00,-228.00,229.00
1646.00,166.00,-4309.00,58.00,-79.00,192.00
1708.00,187.00,-4031.00,-35.00,-48.00,158.00
1641.00,176.00,-4145.00,-159.00,-11.00,147.00
1616.00,93.00,-4168.00,-162.00,-86.00,157.00
1657.00,45.00,-4108.00,-33.00,-96.00,104.00
1596.00,-31.00,-4325.00,19.00,12.00,214.00
1810.00,151.00,-4197.00,-22.00,11.00,151.00
1800.00,55.00,-4152.00,-121.00,-139.00,180.00
1786.00,0.00,-4385.00,-91.00,-87.00,163.00
1642.00,51.00,-3842.00,-59.00,-94.00,232.00
1657.00,124.00,-4167.00,239.00,392.00,138.00
1696.00,79.00,-4101.00,71.00,394.00,345.00
1401.00,164.00,-4772.00,-30.00,-32.00,353.00
1535.00,-90.00,-3778.00,-218.00,-536.00,367.00
1836.00,35.00,-3912.00,-330.00,-205.00,413.00
1626.00,29.00,-4394.00,52.00,-3.00,356.00
1122.00,-26.00,-4577.00,-124.00,139.00,354.00
1228.00,129.00,-4205.00,-164.00,181.00,115.00
1272.00,-44.00,-4337.00,-87.00,128.00,159.00
1233.00,165.00,-4292.00,-10.00,-27.00,137.00
1556.00,212.00,-4097.00,62.00,-18.00,13.00
1516.00,193.00,-4182.00,-27.00,-11.00,39.00
1609.00,107.00,-4175.00,111.00,-97.00,-157.00
1563.00,54.00,-4084.00,8.00,-113.00,-66.00
1500.00,111.00,-4057.00,-21.00,-125.00,-56.00
1575.00,63.00,-4113.00,-12.00,-203.00,-75.00
1633.00,84.00,-4182.00,-31.00,-254.00,-2.00
1591.00,33.00,-4302.00,-35.00,-354.00,-18.00
1571.00,35.00,-4047.00,42.00,-534.00,55.00
1564.00,174.00,-4358.00,-19.00,-316.00,67.00
1677.00,101.00,-4168.00,-24.00,-316.00,4.00
1571.00,113.00,-4227.00,-14.00,-243.00,16.00
1607.00,72.00,-4229.00,-28.00,-188.00,-37.00
1634.00,46.00,-4248.00,19.00,-203.00,3.00
1632.00,89.00,-4208.00,16.00,-215.00,6.00
1613.00,65.00,-4199.00,21.00,-166.00,15.00
1585.00,87.00,-4194.00,8.00,-185.00,14.00
1619.00,117.00,-4224.00,8.00,-85.00,-16.00
1598.00,147.00,-4388.00,2.00,5.00,28.00
1594.00,-51.00,-4136.00,140.00,-90.00,-28.00
1514.00,140.00,-4241.00,63.00,-7.00,136.00
1655.00,98.00,-4245.00,-52.00,-18.00,-61.00
1582.00,53.00,-4145.00,26.00,-76.00,-29.00
1548.00,96.00,-4155.00,75.00,-2.00,22.00
1563.00,85.00,-4190.00,52.00,61.00,-32.00
1587.00,6.00,-4224.00,55.00,-6.00,-105.00
1524.00,54.00,-4112.00,65.00,-13.00,-93.00
1503.00,96.00,-4251.00,58.00,26.00,-70.00
1629.00,124.00,-4210.00,22.00,3.00,-58.00
1586.00,97.00,-4178.00,42.00,20.00,-42.00
1569.00,82.00,-4189.00,60.00,4.00,-39.00
1595.00,94.00,-4209.00,46.00,-6.00,-69.00
1587.00,64.00,-4162.00,49.00,-4.00,-48.00
1557.00,69.00,-4195.00,43.00,-36.00,-28.00
1580.00,88.00,-4196.00,21.00,-49.00,-7.00
1585.00,89.00,-4216.00,41.00,-7.00,-21.00
1554.00,100.00,-4186.00,48.00,-11.00,-29.00
1567.00,70.00,-4206.00,43.00,6.00,-6.00
1571.00,63.00,-4199.00,28.00,17.00,-22.00
1573.00,83.00,-4218.00,34.00,-1.00,-17.00
1584.00,91.00,-4158.00,34.00,-7.00,-20.00
1587.00,76.00,-4192.00,26.00,-12.00,-4.00
1591.00,93.00,-4208.00,31.00,-9.00,-24.00
1581.00,87.00,-4142.00,59.00,5.00,-25.00
1593.00,89.00,-4224.00,32.00,12.00,-31.00
1555.00,50.00,-4195.00,53.00,21.00,-39.00
1581.00,105.00,-4186.00,37.00,7.00,-47.00
1573.00,107.00,-4215.00,37.00,12.00,-42.00
1541.00,82.00,-4201.00,36.00,-2.00,-44.00
1568.00,87.00,-4195.00,40.00,15.00,-50.00
1547.00,89.00,-4198.00,37.00,7.00,-29.00
1575.00,69.00,-4190.00,62.00,16.00,-28.00
1571.00,83.00,-4240.00,43.00,3.00,-33.00
1565.00,83.00,-4181.00,43.00,1.00,-13.00
1588.00,100.00,-4187.00,37.00,-1.00,-17.00
1570.00,65.00,-4208.00,28.00,0.00,-26.00
1588.00,88.00,-4221.00,39.00,-5.00,-23.00
1569.00,68.00,-4191.00,23.00,-9.00,-22.00
1582.00,67.00,-4193.00,38.00,14.00,-17.00
1568.00,97.00,-4182.00,33.00,9.00,-30.00
1555.00,93.00,-4176.00,33.00,1.00,-19.00
1578.00,72.00,-4168.00,27.00,4.00,-31.00
1574.00,93.00,-4181.00,43.00,3.00,-25.00
1567.00,101.00,-4173.00,35.00,6.00,-31.00
1560.00,94.00,-4169.00,34.00,11.00,-25.00
1557.00,91.00,-4192.00,49.00,9.00,-28.00
1604.00,52.00,-4206.00,35.00,11.00,-37.00
1576.00,83.00,-4194.00,43.00,5.00,-35.00
1556.00,72.00,-4205.00,41.00,-3.00,-39.00
1546.00,71.00,-4198.00,40.00,-7.00,-32.00
1568.00,94.00,-4190.00,40.00,-5.00,-35.00
1574.00,89.00,-4178.00,41.00,15.00,-37.00
1553.00,96.00,-4212.00,25.00,6.00,-22.00
1583.00,97.00,-4195.00,27.00,-5.00,-15.00
1574.00,92.00,-4203.00,31.00,6.00,-20.00
1556.00,93.00,-4187.00,49.00,0.00,-19.00
1582.00,96.00,-4195.00,30.00,1.00,-24.00
1567.00,74.00,-4195.00,42.00,14.00,-17.00
1583.00,87.00,-4214.00,32.00,4.00,-21.00
1565.00,88.00,-4179.00,41.00,1.00,-26.00
1568.00,94.00,-4210.00,44.00,-12.00,-27.00
1561.00,96.00,-4166.00,45.00,13.00,-32.00
1593.00,71.00,-4217.00,45.00,-2.00,-31.00
1562.00,78.00,-4180.00,28.00,6.00,-31.00
1578.00,108.00,-4181.00,46.00,16.00,-39.00
1545.00,63.00,-4193.00,35.00,-2.00,-38.00
1560.00,82.00,-4200.00,44.00,2.00,-29.00
1576.00,80.00,-4179.00,20.00,-1.00,-25.00
1578.00,84.00,-4223.00,51.00,-2.00,-28.00
1554.00,83.00,-4212.00,38.00,7.00,-36.00
1576.00,104.00,-4175.00,48.00,2.00,-22.00
1566.00,91.00,-4164.00,44.00,-2.00,-32.00
1582.00,94.00,-4222.00,40.00,9.00,-14.00
1584.00,86.00,-4181.00,20.00,11.00,-28.00
1544.00,93.00,-4153.00,38.00,-1.00,-29.00
1581.00,72.00,-4168.00,36.00,-3.00,-23.00
1565.00,81.00,-4205.00,34.00,7.00,-28.00
1554.00,71.00,-4215.00,35.00,-5.00,-21.00
1572.00,57.00,-4182.00,33.00,-1.00,-38.00
1558.00,61.00,-4203.00,40.00,3.00,-29.00
1607.00,86.00,-4190.00,32.00,-3.00,-38.00
1580.00,61.00,-4183.00,48.00,5.00,-39.00
1575.00,61.00,-4170.00,34.00,11.00,-26.00
1591.00,76.00,-4188.00,46.00,-1.00,-27.00
1579.00,101.00,-4221.00,40.00,6.00,-35.00
1580.00,81.00,-4192.00,31.00,2.00,-25.00
1571.00,100.00,-4218.00,37.00,-2.00,-32.00
1581.00,85.00,-4192.00,52.00,4.00,-13.00
1573.00,90.00,-4212.00,35.00,16.00,-22.00
1591.00,90.00,-4191.00,44.00,7.00,-25.00
1563.00,86.00,-4171.00,33.00,-9.00,-20.00
1561.00,72.00,-4179.00,48.00,6.00,-25.00
1564.00,83.00,-4209.00,37.00,-13.00,-26.00
1574.00,84.00,-4192.00,38.00,21.00,-35.00
1560.00,74.00,-4181.00,38.00,2.00,-39.00
1596.00,87.00,-4174.00,43.00,6.00,-26.00
1581.00,99.00,-4163.00,36.00,8.00,-34.00
1585.00,91.00,-4172.00,37.00,8.00,-29.00
1579.00,89.00,-4184.00,39.00,1.00,-30.00
1582.00,93.00,-4165.00,40.00,2.00,-21.00
1554.00,87.00,-4180.00,38.00,-3.00,-25.00
1564.00,100.00,-4169.00,38.00,11.00,-33.00
1576.00,91.00,-4195.00,29.00,8.00,-34.00
1564.00,71.00,-4199.00,21.00,2.00,-30.00
1553.00,71.00,-4205.00,48.00,0.00,-21.00
1570.00,66.00,-4202.00,46.00,2.00,-31.00
1574.00,85.00,-4212.00,40.00,10.00,-20.00
1560.00,83.00,-4210.00,34.00,16.00,-22.00
1587.00,74.00,-4182.00,37.00,-6.00,-26.00
1558.00,79.00,-4196.00,26.00,3.00,-21.00
1561.00,68.00,-4197.00,43.00,-3.00,-27.00
1548.00,88.00,-4203.00,45.00,1.00,-27.00
1546.00,93.00,-4201.00,35.00,6.00,-34.00
1571.00,89.00,-4166.00,32.00,-9.00,-16.00
1575.00,91.00,-4219.00,40.00,9.00,-28.00
1568.00,83.00,-4193.00,24.00,6.00,-27.00
1581.00,88.00,-4208.00,32.00,12.00,-18.00
1567.00,97.00,-4203.00,41.00,8.00,-22.00
1595.00,88.00,-4214.00,30.00,5.00,-32.00
1578.00,89.00,-4175.00,53.00,12.00,-33.00
1553.00,87.00,-4200.00,42.00,8.00,-36.00
1585.00,100.00,-4182.00,36.00,15.00,-31.00
1570.00,93.00,-4197.00,44.00,12.00,-33.00
1568.00,96.00,-4185.00,26.00,5.00,-32.00
1584.00,105.00,-4171.00,50.00,-5.00,-25.00
1583.00,105.00,-4203.00,45.00,7.00,-23.00
1575.00,96.00,-4205.00,38.00,7.00,-27.00
1573.00,84.00,-4200.00,38.00,0.00,-17.00
1599.00,77.00,-4214.00,38.00,7.00,-26.00
1574.00,84.00,-4186.00,31.00,7.00,-26.00
1555.00,92.00,-4193.00,31.00,-6.00,-26.00
1552.00,70.00,-4198.00,51.00,11.00,-27.00
1545.00,85.00,-4164.00,33.00,9.00,-38.00
1552.00,92.00,-4179.00,39.00,-5.00,-15.00
1556.00,88.00,-4180.00,23.00,8.00,-26.00
1551.00,101.00,-4215.00,24.00,7.00,-32.00
1574.00,82.00,-4182.00,42.00,-8.00,-30.00
1545.00,82.00,-4179.00,36.00,-3.00,-33.00
1564.00,84.00,-4214.00,33.00,7.00,-28.00
1571.00,67.00,-4183.00,40.00,-9.00,-36.00
1572.00,93.00,-4199.00,33.00,17.00,-23.00
1579.00,97.00,-4194.00,51.00,5.00,-29.00
1568.00,72.00,-4205.00,48.00,-3.00,-34.00
1574.00,74.00,-4172.00,39.00,-3.00,-30.00
1568.00,96.00,-4160.00,48.00,18.00,-28.00
1574.00,78.00,-4165.00,48.00,1.00,-25.00
1563.00,96.00,-4217.00,46.00,8.00,-16.00
1577.00,71.00,-4172.00,37.00,15.00,-12.00
1555.00,80.00,-4208.00,33.00,17.00,-16.00
1565.00,82.00,-4186.00,34.00,18.00,-23.00
1557.00,70.00,-4171.00,46.00,2.00,-29.00
1551.00,82.00,-4227.00,35.00,2.00,-19.00
1581.00,78.00,-4199.00,39.00,9.00,-30.00
1554.00,97.00,-4181.00,46.00,12.00,-24.00
1571.00,73.00,-4184.00,28.00,-6.00,-29.00
1566.00,123.00,-4169.00,38.00,12.00,-25.00
1605.00,41.00,-4209.00,30.00,-4.00,-33.00
1574.00,83.00,-4186.00,32.00,19.00,-20.00
1575.00,98.00,-4227.00,27.00,3.00,-14.00
1574.00,88.00,-4168.00,46.00,8.00,-21.00
1588.00,91.00,-4204.00,28.00,0.00,-24.00
1549.00,76.00,-4186.00,38.00,20.00,-18.00
1562.00,87.00,-4238.00,24.00,19.00,-34.00
1579.00,99.00,-4196.00,31.00,13.00,-27.00
1582.00,96.00,-4223.00,41.00,15.00,-24.00
1550.00,77.00,-4227.00,37.00,0.00,-27.00
1576.00,70.00,-4208.00,41.00,11.00,-40.00
1544.00,93.00,-4195.00,30.00,5.00,-25.00
1567.00,68.00,-4236.00,36.00,14.00,-26.00
1583.00,91.00,-4229.00,35.00,13.00,-43.00
1563.00,79.00,-4216.00,45.00,1.00,-18.00
1563.00,75.00,-4164.00,32.00,7.00,-29.00
1552.00,79.00,-4169.00,35.00,6.00,-34.00
1599.00,78.00,-4180.00,50.00,7.00,-27.00
1569.00,84.00,-4227.00,37.00,6.00,-22.00
1570.00,86.00,-4207.00,46.00,-2.00,-34.00
1567.00,95.00,-4182.00,19.00,6.00,-33.00
1583.00,87.00,-4188.00,18.00,-3.00,-34.00
1585.00,68.00,-4159.00,27.00,5.00,-43.00
1553.00,89.00,-4205.00,30.00,4.00,-22.00
1588.00,74.00,-4202.00,35.00,-2.00,-24.00
1580.00,78.00,-4162.00,25.00,-6.00,-35.00
1557.00,80.00,-4200.00,35.00,7.00,-25.00
1549.00,101.00,-4168.00,33.00,-3.00,-33.00
1550.00,91.00,-4186.00,41.00,8.00,-27.00
1568.00,62.00,-4175.00,30.00,8.00,-38.00
1558.00,86.00,-4233.00,37.00,6.00,-38.00
1585.00,87.00,-4221.00,29.00,3.00,-31.00
1572.00,75.00,-4179.00,33.00,8.00,-27.00
1577.00,98.00,-4212.00,27.00,3.00,-29.00
1552.00,91.00,-4192.00,27.00,2.00,-41.00
1573.00,88.00,-4188.00,47.00,12.00,-25.00
1563.00,75.00,-4250.00,41.00,6.00,-37.00
1576.00,68.00,-4227.00,42.00,2.00,-33.00
1571.00,100.00,-4211.00,33.00,0.00,-29.00
1566.00,76.00,-4192.00,41.00,5.00,-33.00
1557.00,84.00,-4181.00,39.00,12.00,-26.00
1554.00,74.00,-4175.00,37.00,9.00,-36.00
1552.00,81.00,-4209.00,23.00,10.00,-16.00
1574.00,57.00,-4230.00,34.00,7.00,-27.00
1571.00,83.00,-4177.00,44.00,15.00,-18.00
1555.00,77.00,-4185.00,33.00,-1.00,-22.00
1583.00,78.00,-4169.00,33.00,2.00,-24.00
1580.00,86.00,-4200.00,23.00,8.00,-32.00
1546.00,78.00,-4198.00,51.00,-1.00,-14.00
1590.00,78.00,-4189.00,40.00,-1.00,-41.00
1542.00,74.00,-4176.00,51.00,18.00,-37.00
1567.00,74.00,-4192.00,29.00,8.00,-21.00
1563.00,63.00,-4155.00,38.00,8.00,-23.00
1571.00,88.00,-4190.00,31.00,7.00,-39.00
1561.00,84.00,-4186.00,46.00,9.00,-19.00
1578.00,99.00,-4171.00,38.00,7.00,-31.00
1580.00,86.00,-4201.00,45.00,-6.00,-16.00
1567.00,83.00,-4229.00,44.00,7.00,-26.00
1549.00,82.00,-4197.00,39.00,1.00,-25.00
1581.00,86.00,-4185.00,28.00,-3.00,-28.00
1574.00,86.00,-4170.00,30.00,-1.00,-32.00
1557.00,115.00,-4185.00,29.00,1.00,-28.00
1583.00,88.00,-4214.00,45.00,11.00,-30.00
1561.00,79.00,-4214.00,26.00,1.00,-29.00
1581.00,59.00,-4204.00,35.00,8.00,-32.00
1571.00,74.00,-4166.00,42.00,4.00,-33.00
1567.00,94.00,-4215.00,50.00,2.00,-27.00
1544.00,80.00,-4192.00,37.00,1.00,-29.00
1582.00,77.00,-4203.00,40.00,7.00,-24.00
1564.00,88.00,-4188.00,39.00,4.00,-30.00
1548.00,86.00,-4223.00,42.00,8.00,-28.00
1575.00,86.00,-4198.00,35.00,8.00,-18.00
1565.00,95.00,-4187.00,50.00,-7.00,-23.00
1540.00,86.00,-4179.00,38.00,-5.00,-32.00
1545.00,65.00,-4173.00,34.00,9.00,-30.00
1576.00,54.00,-4208.00,47.00,16.00,-19.00
1554.00,99.00,-4184.00,43.00,17.00,-19.00
1583.00,71.00,-4188.00,34.00,10.00,-29.00
1564.00,89.00,-4207.00,38.00,4.00,-20.00
1573.00,90.00,-4198.00,33.00,2.00,-20.00
1549.00,98.00,-4217.00,43.00,-7.00,-39.00
1568.00,90.00,-4186.00,37.00,1.00,-25.00
1549.00,86.00,-4196.00,28.00,5.00,-31.00
1558.00,90.00,-4184.00,42.00,10.00,-37.00
1553.00,60.00,-4197.00,42.00,-3.00,-36.00
1593.00,104.00,-4203.00,34.00,10.00,-24.00
1554.00,110.00,-4197.00,54.00,18.00,-31.00
1571.00,98.00,-4197.00,32.00,11.00,-34.00
1583.00,83.00,-4176.00,35.00,8.00,-21.00
1547.00,84.00,-4223.00,39.00,14.00,-24.00
1541.00,78.00,-4159.00,34.00,3.00,-23.00
1556.00,78.00,-4186.00,40.00,9.00,-30.00
1572.00,96.00,-4195.00,39.00,9.00,-18.00
1570.00,76.00,-4209.00,37.00,-20.00,-29.00
1550.00,80.00,-4185.00,32.00,10.00,-17.00
1573.00,90.00,-4201.00,33.00,2.00,-35.00
1530.00,86.00,-4175.00,32.00,7.00,-18.00
1546.00,84.00,-4203.00,44.00,-1.00,-37.00
1565.00,75.00,-4228.00,29.00,11.00,-25.00
1552.00,99.00,-4188.00,34.00,0.00,-38.00
1581.00,97.00,-4214.00,16.00,-3.00,-26.00
1581.00,79.00,-4176.00,42.00,2.00,-28.00
1563.00,65.00,-4208.00,30.00,19.00,-14.00
1549.00,61.00,-4228.00,41.00,-2.00,-23.00
1570.00,76.00,-4203.00,38.00,0.00,-27.00
1551.00,85.00,-4182.00,31.00,15.00,-27.00
1589.00,76.00,-4170.00,55.00,3.00,-39.00
1540.00,84.00,-4206.00,42.00,5.00,-36.00
1565.00,105.00,-4176.00,39.00,9.00,-27.00
1557.00,63.00,-4178.00,38.00,7.00,-35.00
1570.00,75.00,-4192.00,41.00,7.00,-31.00
1579.00,64.00,-4201.00,41.00,9.00,-30.00
1549.00,58.00,-4219.00,34.00,4.00,-28.00
1561.00,79.00,-4181.00,32.00,18.00,-30.00
1573.00,87.00,-4192.00,44.00,-3.00,-25.00
1567.00,76.00,-4187.00,36.00,13.00,-15.00
1566.00,92.00,-4205.00,34.00,-6.00,-24.00
1563.00,67.00,-4187.00,42.00,7.00,-36.00
1574.00,113.00,-4177.00,39.00,8.00,-43.00
1571.00,75.00,-4190.00,34.00,1.00,-17.00
1547.00,100.00,-4199.00,50.00,-4.00,-20.00
1573.00,89.00,-4180.00,36.00,10.00,-25.00
1563.00,82.00,-4184.00,39.00,2.00,-31.00
1549.00,87.00,-4179.00,48.00,-8.00,-17.00
1564.00,74.00,-4195.00,44.00,5.00,-27.00
1571.00,91.00,-4221.00,35.00,7.00,-32.00
1577.00,68.00,-4168.00,55.00,2.00,-34.00
1546.00,105.00,-4161.00,43.00,6.00,-20.00
1578.00,77.00,-4195.00,46.00,1.00,-29.00
1556.00,66.00,-4187.00,50.00,-5.00,-30.00
1560.00,87.00,-4199.00,38.00,6.00,-26.00
1559.00,75.00,-4207.00,31.00,14.00,-20.00
1579.00,84.00,-4181.00,24.00,-8.00,-27.00
1575.00,80.00,-4184.00,36.00,13.00,-16.00
1558.00,97.00,-4173.00,42.00,6.00,-18.00
1560.00,63.00,-4175.00,36.00,5.00,-39.00
1560.00,94.00,-4231.00,40.00,6.00,-40.00
1581.00,86.00,-4161.00,43.00,10.00,-30.00
1581.00,81.00,-4172.00,28.00,4.00,-29.00
1585.00,68.00,-4213.00,35.00,6.00,-33.00
1562.00,69.00,-4187.00,28.00,10.00,-18.00
1575.00,91.00,-4201.00,27.00,-7.00,-23.00
1561.00,92.00,-4227.00,42.00,4.00,-30.00
1569.00,101.00,-4183.00,55.00,9.00,-21.00
1553.00,87.00,-4175.00,26.00,9.00,-31.00
1566.00,100.00,-4193.00,31.00,15.00,-41.00
1559.00,88.00,-4175.00,43.00,2.00,-32.00
1580.00,61.00,-4204.00,37.00,-7.00,-44.00
1570.00,76.00,-4215.00,26.00,8.00,-17.00
1550.00,102.00,-4229.00,46.00,2.00,-37.00
1564.00,93.00,-4199.00,32.00,5.00,-29.00
1553.00,81.00,-4193.00,46.00,10.00,-34.00
1559.00,87.00,-4174.00,34.00,-5.00,-21.00
1531.00,104.00,-4167.00,43.00,11.00,-36.00
1568.00,94.00,-4201.00,44.00,6.00,-29.00
1575.00,95.00,-4211.00,36.00,7.00,-25.00
1535.00,102.00,-4187.00,41.00,12.00,-26.00
1560.00,74.00,-4214.00,34.00,3.00,-28.00
1583.00,66.00,-4177.00,45.00,6.00,-20.00
1546.00,88.00,-4205.00,32.00,8.00,-42.00
1571.00,93.00,-4178.00,44.00,2.00,-27.00
1574.00,72.00,-4190.00,39.00,3.00,-32.00
1564.00,109.00,-4166.00,50.00,3.00,-22.00
1601.00,93.00,-4150.00,26.00,-13.00,-34.00
1550.00,81.00,-4213.00,40.00,-5.00,-30.00
1583.00,67.00,-4192.00,46.00,3.00,-19.00
1580.00,84.00,-4171.00,33.00,11.00,-32.00
1570.00,75.00,-4186.00,59.00,5.00,-29.00
1546.00,79.00,-4202.00,38.00,18.00,-16.00
1534.00,83.00,-4192.00,28.00,-7.00,-32.00
1561.00,74.00,-4203.00,42.00,9.00,-48.00
1570.00,103.00,-4192.00,33.00,8.00,-23.00
1585.00,78.00,-4196.00,39.00,-2.00,-24.00
1547.00,75.00,-4172.00,33.00,10.00,-35.00
1581.00,79.00,-4203.00,35.00,1.00,-21.00
1562.00,83.00,-4227.00,42.00,20.00,-32.00
1559.00,102.00,-4176.00,48.00,6.00,-28.00
1564.00,65.00,-4219.00,43.00,6.00,-43.00
1585.00,77.00,-4194.00,44.00,0.00,-26.00
1558.00,62.00,-4199.00,40.00,13.00,-15.00
1547.00,98.00,-4211.00,28.00,5.00,-25.00
1555.00,75.00,-4162.00,40.00,24.00,-37.00
1565.00,94.00,-4200.00,32.00,13.00,-42.00
1588.00,90.00,-4182.00,43.00,-4.00,-34.00
1569.00,85.00,-4194.00,17.00,2.00,-25.00
1591.00,96.00,-4175.00,33.00,12.00,-27.00
1588.00,81.00,-4229.00,46.00,9.00,-30.00
1561.00,100.00,-4195.00,53.00,7.00,-27.00
1565.00,95.00,-4168.00,33.00,1.00,-34.00
1586.00,81.00,-4181.00,32.00,7.00,-30.00
1585.00,93.00,-4171.00,57.00,9.00,-34.00
1550.00,67.00,-4204.00,32.00,4.00,-24.00
1583.00,86.00,-4187.00,37.00,14.00,-30.00
1556.00,97.00,-4184.00,37.00,2.00,-31.00
1554.00,89.00,-4210.00,31.00,8.00,-34.00
1581.00,91.00,-4192.00,41.00,20.00,-39.00
1570.00,74.00,-4194.00,41.00,1.00,-26.00
1575.00,80.00,-4232.00,48.00,-5.00,-27.00
1599.00,87.00,-4189.00,25.00,8.00,-33.00
1560.00,77.00,-4186.00,32.00,5.00,-26.00
1581.00,78.00,-4211.00,27.00,12.00,-29.00
1561.00,75.00,-4206.00,37.00,7.00,-32.00
1567.00,96.00,-4170.00,36.00,3.00,-32.00
1578.00,102.00,-4177.00,43.00,4.00,-30.00
1599.00,73.00,-4195.00,35.00,3.00,-20.00
1574.00,100.00,-4210.00,39.00,-2.00,-34.00
1550.00,77.00,-4192.00,48.00,9.00,-35.00
1553.00,80.00,-4173.00,31.00,-5.00,-34.00
1566.00,103.00,-4221.00,47.00,8.00,-19.00
1541.00,95.00,-4208.00,33.00,4.00,-27.00
1589.00,88.00,-4208.00,38.00,6.00,-35.00
1562.00,81.00,-4167.00,39.00,-2.00,-32.00
1587.00,68.00,-4160.00,43.00,-3.00,-23.00
1550.00,87.00,-4212.00,45.00,24.00,-33.00
1549.00,72.00,-4200.00,26.00,5.00,-29.00
1571.00,93.00,-4183.00,41.00,-6.00,-26.00
1572.00,75.00,-4198.00,35.00,12.00,-28.00
1560.00,67.00,-4185.00,34.00,-7.00,-32.00
1580.00,93.00,-4187.00,36.00,-1.00,-21.00
1557.00,112.00,-4212.00,37.00,11.00,-30.00
1539.00,73.00,-4210.00,36.00,5.00,-28.00
1578.00,94.00,-4212.00,27.00,6.00,-35.00
1551.00,80.00,-4196.00,30.00,9.00,-24.00
1579.00,69.00,-4204.00,49.00,0.00,-22.00
1575.00,100.00,-4161.00,30.00,10.00,-31.00
1583.00,70.00,-4187.00,23.00,4.00,-24.00
1559.00,74.00,-4189.00,41.00,5.00,-14.00
1543.00,85.00,-4187.00,33.00,10.00,-21.00
1547.00,89.00,-4176.00,38.00,-1.00,-20.00
1563.00,66.00,-4175.00,36.00,12.00,-19.00
1571.00,82.00,-4182.00,47.00,6.00,-24.00
1563.00,63.00,-4212.00,36.00,7.00,-32.00
1561.00,60.00,-4176.00,43.00,3.00,-28.00
1609.00,74.00,-4178.00,53.00,18.00,-34.00
1571.00,97.00,-4209.00,34.00,10.00,-30.00
1557.00,80.00,-4183.00,40.00,1.00,-42.00
1558.00,74.00,-4208.00,38.00,10.00,-29.00
1543.00,80.00,-4172.00,39.00,11.00,-29.00
1587.00,99.00,-4202.00,49.00,-3.00,-19.00
1571.00,102.00,-4226.00,43.00,1.00,-24.00
1565.00,79.00,-4184.00,42.00,8.00,-32.00
1563.00,85.00,-4193.00,33.00,-2.00,-27.00
1585.00,83.00,-4209.00,49.00,-3.00,-33.00
1567.00,91.00,-4177.00,32.00,0.00,-31.00
1600.00,101.00,-4194.00,46.00,2.00,-30.00
1570.00,70.00,-4166.00,32.00,-1.00,-28.00
1570.00,97.00,-4176.00,34.00,2.00,-41.00
1557.00,89.00,-4212.00,38.00,-2.00,-51.00
1551.00,74.00,-4163.00,59.00,-2.00,-24.00
1556.00,76.00,-4205.00,42.00,16.00,-24.00
1548.00,80.00,-4187.00,36.00,0.00,-23.00
1572.00,83.00,-4181.00,28.00,1.00,-28.00
1603.00,110.00,-4182.00,43.00,5.00,-27.00
1563.00,72.00,-4188.00,41.00,9.00,-32.00
1554.00,96.00,-4225.00,24.00,15.00,-35.00
1584.00,75.00,-4201.00,44.00,10.00,-28.00
1579.00,76.00,-4174.00,34.00,-6.00,-42.00
1557.00,108.00,-4165.00,33.00,8.00,-16.00
1564.00,94.00,-4189.00,44.00,4.00,-30.00
1567.00,91.00,-4213.00,38.00,4.00,-34.00
1545.00,76.00,-4221.00,34.00,6.00,-44.00
1571.00,93.00,-4176.00,33.00,16.00,-29.00
1549.00,87.00,-4175.00,34.00,5.00,-17.00
1560.00,87.00,-4192.00,27.00,2.00,-15.00
1580.00,71.00,-4217.00,49.00,-2.00,-26.00
1571.00,104.00,-4221.00,37.00,1.00,-17.00
1556.00,98.00,-4197.00,37.00,-4.00,-27.00
1579.00,77.00,-4200.00,37.00,2.00,-21.00
1553.00,88.00,-4203.00,40.00,9.00,-21.00
1573.00,93.00,-4201.00,47.00,0.00,-26.00
1579.00,75.00,-4212.00,29.00,10.00,-30.00
1581.00,85.00,-4214.00,34.00,2.00,-31.00
1573.00,110.00,-4165.00,38.00,2.00,-21.00
1563.00,86.00,-4197.00,37.00,11.00,-18.00
1549.00,83.00,-4242.00,35.00,9.00,-22.00
1593.00,79.00,-4171.00,42.00,9.00,-34.00
1541.00,97.00,-4185.00,41.00,10.00,-34.00
1561.00,109.00,-4211.00,31.00,7.00,-23.00
1554.00,80.00,-4194.00,53.00,9.00,-28.00
1580.00,75.00,-4182.00,42.00,4.00,-36.00
1545.00,81.00,-4171.00,39.00,4.00,-28.00
1589.00,78.00,-4172.00,46.00,2.00,-28.00
1582.00,77.00,-4180.00,29.00,14.00,-10.00
1560.00,96.00,-4177.00,35.00,5.00,-23.00
1568.00,79.00,-4191.00,45.00,-10.00,-33.00
1583.00,90.00,-4181.00,38.00,2.00,-27.00
1534.00,69.00,-4193.00,42.00,25.00,-29.00
1543.00,91.00,-4175.00,37.00,8.00,-18.00
1577.00,72.00,-4188.00,38.00,7.00,-33.00
1554.00,82.00,-4196.00,39.00,-12.00,-28.00
1582.00,57.00,-4175.00,27.00,7.00,-24.00
1568.00,84.00,-4221.00,33.00,4.00,-22.00
1573.00,83.00,-4179.00,33.00,6.00,-23.00
1544.00,79.00,-4186.00,50.00,8.00,-31.00
1566.00,68.00,-4181.00,23.00,17.00,-26.00
1565.00,82.00,-4187.00,42.00,13.00,-32.00
1569.00,85.00,-4182.00,37.00,6.00,-28.00
1577.00,80.00,-4177.00,41.00,-3.00,-25.00
1574.00,76.00,-4211.00,26.00,10.00,-25.00
1554.00,84.00,-4241.00,37.00,14.00,-25.00
1543.00,99.00,-4153.00,44.00,-5.00,-27.00
1570.00,91.00,-4173.00,46.00,13.00,-29.00
1553.00,82.00,-4212.00,32.00,3.00,-13.00
1563.00,89.00,-4185.00,24.00,-5.00,-26.00
1578.00,72.00,-4198.00,35.00,16.00,-26.00
1572.00,64.00,-4176.00,33.00,1.00,-22.00
1575.00,99.00,-4197.00,40.00,14.00,-36.00
1564.00,61.00,-4184.00,28.00,0.00,-29.00
1569.00,79.00,-4166.00,34.00,15.00,-20.00
1575.00,95.00,-4216.00,43.00,18.00,-29.00
1563.00,88.00,-4168.00,35.00,8.00,-45.00
1609.00,93.00,-4219.00,29.00,9.00,-24.00
1564.00,89.00,-4203.00,30.00,2.00,-27.00
1580.00,69.00,-4198.00,53.00,13.00,-29.00
1566.00,98.00,-4171.00,26.00,-1.00,-35.00
1581.00,72.00,-4171.00,35.00,7.00,-30.00
1570.00,86.00,-4188.00,39.00,-7.00,-36.00
1543.00,92.00,-4168.00,39.00,-9.00,-33.00
1570.00,72.00,-4214.00,41.00,3.00,-33.00
1549.00,71.00,-4198.00,42.00,-6.00,-17.00
1570.00,78.00,-4192.00,41.00,2.00,-24.00
1572.00,70.00,-4187.00,24.00,-4.00,-36.00
1572.00,73.00,-4151.00,31.00,-4.00,-21.00
1576.00,95.00,-4188.00,45.00,-6.00,-31.00
1555.00,76.00,-4217.00,19.00,6.00,-24.00
1549.00,76.00,-4188.00,43.00,2.00,-29.00
1574.00,75.00,-4202.00,40.00,5.00,-21.00
1571.00,91.00,-4177.00,31.00,2.00,-33.00
1572.00,77.00,-4216.00,32.00,3.00,-25.00
1580.00,86.00,-4184.00,31.00,2.00,-17.00
1569.00,88.00,-4194.00,32.00,9.00,-24.00
1549.00,67.00,-4199.00,36.00,-1.00,-34.00
1555.00,75.00,-4187.00,35.00,18.00,-33.00
1582.00,107.00,-4186.00,28.00,17.00,-39.00
1555.00,77.00,-4206.00,27.00,13.00,-24.00
1578.00,82.00,-4188.00,47.00,6.00,-26.00
1572.00,84.00,-4184.00,39.00,2.00,-11.00
1613.00,76.00,-4205.00,57.00,3.00,-29.00
1561.00,93.00,-4211.00,39.00,5.00,-21.00
1559.00,81.00,-4205.00,34.00,12.00,-27.00
1572.00,85.00,-4156.00,27.00,15.00,-22.00
1563.00,93.00,-4197.00,36.00,13.00,-28.00
1564.00,103.00,-4181.00,50.00,9.00,-25.00
1578.00,85.00,-4224.00,44.00,-2.00,-31.00
1558.00,84.00,-4216.00,30.00,17.00,-30.00
1554.00,113.00,-4180.00,50.00,0.00,-21.00
1563.00,93.00,-4187.00,33.00,5.00,-33.00
1559.00,63.00,-4186.00,45.00,-4.00,-30.00
1580.00,80.00,-4216.00,32.00,2.00,-10.00
1568.00,89.00,-4204.00,37.00,7.00,-28.00
1569.00,66.00,-4209.00,41.00,2.00,-24.00
1572.00,88.00,-4209.00,55.00,1.00,-32.00
1559.00,75.00,-4220.00,37.00,18.00,-34.00
1563.00,74.00,-4173.00,22.00,-5.00,-20.00
1549.00,94.00,-4215.00,55.00,10.00,-32.00
1563.00,54.00,-4196.00,41.00,10.00,-35.00
1561.00,95.00,-4183.00,40.00,0.00,-30.00
1570.00,91.00,-4179.00,24.00,8.00,-22.00
1566.00,105.00,-4227.00,42.00,2.00,-31.00
1552.00,66.00,-4213.00,36.00,8.00,-34.00
1566.00,71.00,-4187.00,32.00,0.00,-14.00
1586.00,90.00,-4215.00,40.00,11.00,-31.00
1543.00,80.00,-4179.00,39.00,1.00,-36.00
1535.00,83.00,-4220.00,47.00,1.00,-19.00
1561.00,81.00,-4212.00,34.00,6.00,-27.00
1550.00,91.00,-4192.00,37.00,3.00,-30.00
1563.00,92.00,-4203.00,34.00,-8.00,-31.00
1570.00,65.00,-4174.00,35.00,11.00,-33.00
1558.00,70.00,-4200.00,30.00,2.00,-23.00
1575.00,85.00,-4193.00,44.00,-4.00,-19.00
1568.00,93.00,-4175.00,58.00,2.00,-33.00
1571.00,81.00,-4203.00,41.00,15.00,-23.00
1571.00,74.00,-4200.00,51.00,1.00,-30.00
1582.00,109.00,-4197.00,31.00,5.00,-31.00
1568.00,93.00,-4186.00,51.00,10.00,-27.00
1575.00,86.00,-4197.00,25.00,-6.00,-25.00
1570.00,82.00,-4217.00,28.00,6.00,-29.00
1568.00,74.00,-4180.00,43.00,-8.00,-28.00
1567.00,113.00,-4180.00,50.00,-4.00,-23.00
1544.00,90.00,-4242.00,33.00,-6.00,-29.00
1578.00,95.00,-4224.00,45.00,8.00,-30.00
1567.00,87.00,-4195.00,42.00,-2.00,-25.00
1552.00,81.00,-4193.00,39.00,-1.00,-19.00
1563.00,93.00,-4187.00,34.00,11.00,-27.00
1565.00,113.00,-4207.00,50.00,8.00,-7.00
1578.00,86.00,-4190.00,35.00,8.00,-27.00
1586.00,85.00,-4194.00,33.00,4.00,-20.00
1549.00,85.00,-4204.00,34.00,0.00,-25.00
1601.00,74.00,-4173.00,41.00,-6.00,-27.00
1576.00,100.00,-4195.00,25.00,-9.00,-27.00
1578.00,87.00,-4229.00,39.00,-4.00,-29.00
1555.00,106.00,-4212.00,32.00,-2.00,-25.00
1573.00,75.00,-4201.00,32.00,4.00,-26.00
1563.00,84.00,-4202.00,33.00,3.00,-33.00
1561.00,75.00,-4153.00,40.00,5.00,-22.00
1566.00,77.00,-4174.00,37.00,10.00,-33.00
1559.00,72.00,-4190.00,42.00,3.00,-32.00
1563.00,80.00,-4203.00,29.00,5.00,-31.00
1556.00,71.00,-4192.00,26.00,5.00,-14.00
1581.00,88.00,-4200.00,41.00,16.00,-29.00
1591.00,56.00,-4212.00,38.00,3.00,-32.00
1561.00,82.00,-4179.00,39.00,12.00,-5.00
1561.00,88.00,-4175.00,30.00,-5.00,-28.00
1541.00,90.00,-4192.00,39.00,12.00,-28.00
1557.00,71.00,-4168.00,33.00,14.00,-33.00
1556.00,65.00,-4171.00,36.00,6.00,-24.00
1557.00,63.00,-4200.00,28.00,1.00,-29.00
1562.00,69.00,-4210.00,52.00,0.00,-17.00
1566.00,63.00,-4234.00,49.00,1.00,-17.00
1577.00,82.00,-4181.00,42.00,19.00,-28.00
1542.00,88.00,-4225.00,37.00,2.00,-28.00
1565.00,81.00,-4181.00,32.00,2.00,-26.00
1554.00,102.00,-4184.00,31.00,-3.00,-13.00
1568.00,91.00,-4179.00,48.00,4.00,-25.00
1559.00,84.00,-4201.00,38.00,-12.00,-16.00
1564.00,73.00,-4200.00,36.00,6.00,-30.00
1595.00,84.00,-4205.00,34.00,1.00,-16.00
1564.00,86.00,-4175.00,44.00,15.00,-22.00
1554.00,78.00,-4197.00,28.00,6.00,-27.00
1569.00,88.00,-4172.00,20.00,6.00,-28.00
1549.00,72.00,-4160.00,37.00,7.00,-25.00
1561.00,117.00,-4178.00,20.00,7.00,-34.00
1550.00,85.00,-4180.00,41.00,11.00,-17.00
1556.00,90.00,-4223.00,40.00,18.00,-24.00
1565.00,91.00,-4178.00,37.00,13.00,-26.00
1553.00,72.00,-4216.00,31.00,9.00,-24.00
1559.00,100.00,-4169.00,40.00,-8.00,-31.00
1547.00,105.00,-4171.00,27.00,2.00,-28.00
1585.00,74.00,-4142.00,49.00,-8.00,-22.00
1546.00,88.00,-4186.00,40.00,-3.00,-31.00
1568.00,82.00,-4205.00,34.00,5.00,-26.00
1546.00,73.00,-4175.00,37.00,14.00,-21.00
1553.00,84.00,-4218.00,27.00,15.00,-33.00
1559.00,91.00,-4204.00,42.00,9.00,-32.00
1581.00,79.00,-4208.00,52.00,-4.00,-31.00
1573.00,92.00,-4212.00,40.00,-2.00,-27.00
1562.00,80.00,-4177.00,34.00,6.00,-34.00
1560.00,101.00,-4203.00,32.00,6.00,-29.00
1556.00,112.00,-4208.00,40.00,12.00,-24.00
1563.00,72.00,-4185.00,48.00,14.00,-32.00
1571.00,88.00,-4188.00,41.00,10.00,-27.00
1561.00,98.00,-4220.00,36.00,4.00,-21.00
1586.00,71.00,-4193.00,31.00,14.00,-25.00
1580.00,97.00,-4173.00,20.00,6.00,-22.00
1555.00,84.00,-4241.00,49.00,6.00,-33.00
1594.00,92.00,-4175.00,41.00,5.00,-30.00
1578.00,83.00,-4208.00,35.00,10.00,-35.00
1577.00,76.00,-4194.00,38.00,-15.00,-20.00
1547.00,52.00,-4183.00,44.00,13.00,-48.00
1583.00,68.00,-4190.00,44.00,-2.00,-20.00
1571.00,75.00,-4194.00,44.00,-12.00,-21.00
1573.00,79.00,-4195.00,34.00,5.00,-30.00
1567.00,92.00,-4206.00,24.00,0.00,-19.00
1559.00,91.00,-4207.00,40.00,1.00,-29.00
1558.00,90.00,-4180.00,44.00,-10.00,-23.00
1559.00,82.00,-4181.00,39.00,-3.00,-30.00
1582.00,80.00,-4176.00,46.00,12.00,-30.00
1568.00,94.00,-4195.00,34.00,-2.00,-23.00
1552.00,78.00,-4164.00,26.00,13.00,-31.00
1555.00,79.00,-4170.00,25.00,10.00,-36.00
1560.00,99.00,-4176.00,35.00,4.00,-24.00
1582.00,65.00,-4192.00,63.00,13.00,-32.00
1573.00,74.00,-4205.00,28.00,7.00,-38.00
1558.00,106.00,-4212.00,34.00,4.00,-35.00
1563.00,75.00,-4223.00,40.00,1.00,-34.00
1568.00,82.00,-4198.00,43.00,9.00,-28.00
1565.00,72.00,-4187.00,28.00,14.00,-30.00
1584.00,76.00,-4157.00,34.00,3.00,-43.00
1575.00,66.00,-4224.00,37.00,7.00,-46.00
1573.00,74.00,-4219.00,35.00,-2.00,-19.00
1573.00,81.00,-4216.00,33.00,-1.00,-25.00
1566.00,118.00,-4179.00,41.00,10.00,-18.00
1566.00,100.00,-4165.00,45.00,-16.00,-20.00
1585.00,64.00,-4232.00,25.00,7.00,-32.00
1551.00,76.00,-4158.00,20.00,21.00,-12.00
1576.00,96.00,-4181.00,40.00,14.00,-28.00
1576.00,98.00,-4218.00,33.00,20.00,-24.00
1556.00,78.00,-4158.00,39.00,11.00,-23.00
1563.00,89.00,-4181.00,38.00,14.00,-26.00
1585.00,86.00,-4169.00,36.00,9.00,-29.00
1554.00,87.00,-4188.00,29.00,7.00,-22.00
1556.00,90.00,-4220.00,44.00,-1.00,-22.00
1587.00,93.00,-4182.00,32.00,-5.00,-35.00
1589.00,67.00,-4209.00,53.00,8.00,-24.00
1572.00,88.00,-4178.00,26.00,-3.00,-22.00
1568.00,71.00,-4202.00,38.00,7.00,-19.00
1577.00,79.00,-4234.00,50.00,11.00,-37.00
1566.00,88.00,-4212.00,39.00,0.00,-9.00
1561.00,76.00,-4207.00,44.00,-6.00,-34.00
1565.00,85.00,-4156.00,25.00,22.00,-18.00
1560.00,104.00,-4193.00,48.00,14.00,-17.00
1546.00,76.00,-4190.00,42.00,-8.00,-22.00
1570.00,87.00,-4184.00,37.00,0.00,-21.00
1567.00,91.00,-4203.00,33.00,11.00,-32.00
1559.00,85.00,-4195.00,28.00,7.00,-18.00
1545.00,71.00,-4213.00,34.00,8.00,-46.00
1566.00,98.00,-4199.00,44.00,14.00,-18.00
1544.00,84.00,-4202.00,33.00,1.00,-24.00
1595.00,73.00,-4196.00,40.00,6.00,-18.00
1579.00,88.00,-4173.00,45.00,7.00,-19.00
1562.00,85.00,-4149.00,42.00,0.00,-40.00
1556.00,90.00,-4207.00,33.00,12.00,-38.00
1585.00,91.00,-4217.00,33.00,2.00,-27.00
1575.00,82.00,-4178.00,37.00,5.00,-19.00
1574.00,101.00,-4193.00,33.00,-2.00,-35.00
1564.00,95.00,-4189.00,50.00,16.00,-36.00
1566.00,87.00,-4197.00,40.00,3.00,-31.00
1582.00,99.00,-4231.00,49.00,0.00,-31.00
1560.00,71.00,-4192.00,31.00,2.00,-29.00
1571.00,73.00,-4209.00,39.00,16.00,-33.00
1562.00,106.00,-4193.00,49.00,7.00,-20.00
1567.00,80.00,-4198.00,35.00,7.00,-25.00
1583.00,99.00,-4192.00,42.00,1.00,-41.00
1562.00,81.00,-4188.00,38.00,12.00,-24.00
1580.00,104.00,-4169.00,51.00,10.00,-7.00
1590.00,102.00,-4205.00,31.00,-3.00,-36.00
1554.00,106.00,-4190.00,43.00,-8.00,-30.00
1583.00,96.00,-4193.00,43.00,18.00,-42.00
1572.00,90.00,-4171.00,46.00,12.00,-21.00
1570.00,89.00,-4191.00,41.00,11.00,-28.00
1572.00,95.00,-4176.00,49.00,1.00,-31.00
1556.00,62.00,-4206.00,47.00,-6.00,-39.00
1561.00,80.00,-4179.00,27.00,17.00,-34.00
1561.00,71.00,-4172.00,42.00,12.00,-33.00
1602.00,87.00,-4188.00,40.00,10.00,-35.00
1575.00,90.00,-4197.00,32.00,12.00,-31.00
1569.00,106.00,-4209.00,30.00,3.00,-33.00
1589.00,98.00,-4210.00,37.00,0.00,-33.00
1561.00,76.00,-4173.00,38.00,3.00,-23.00
1569.00,67.00,-4192.00,47.00,11.00,-24.00
1597.00,87.00,-4208.00,40.00,11.00,-24.00
1548.00,89.00,-4181.00,38.00,5.00,-31.00
1558.00,69.00,-4174.00,41.00,5.00,-27.00
1569.00,82.00,-4212.00,47.00,10.00,-27.00
1553.00,69.00,-4174.00,35.00,15.00,-31.00
1571.00,75.00,-4219.00,33.00,10.00,-27.00
1576.00,106.00,-4184.00,34.00,7.00,-24.00
1600.00,106.00,-4179.00,47.00,-1.00,-33.00
1580.00,75.00,-4184.00,41.00,-2.00,-23.00
1572.00,70.00,-4171.00,27.00,3.00,-27.00
1578.00,78.00,-4207.00,37.00,5.00,-27.00
1544.00,86.00,-4196.00,45.00,15.00,-29.00
1574.00,74.00,-4181.00,43.00,10.00,-27.00
1554.00,85.00,-4215.00,36.00,9.00,-32.00
1562.00,65.00,-4163.00,37.00,6.00,-22.00
1582.00,85.00,-4169.00,29.00,8.00,-45.00
1575.00,107.00,-4191.00,47.00,15.00,-27.00
1556.00,66.00,-4177.00,35.00,9.00,-30.00
1567.00,74.00,-4212.00,29.00,-3.00,-29.00
1580.00,91.00,-4172.00,24.00,7.00,-19.00
1557.00,87.00,-4176.00,36.00,9.00,-39.00
1587.00,74.00,-4193.00,40.00,8.00,-19.00
1580.00,96.00,-4188.00,37.00,6.00,-29.00
1565.00,101.00,-4166.00,30.00,10.00,-20.00
1540.00,90.00,-4196.00,33.00,7.00,-26.00
1563.00,80.00,-4195.00,45.00,6.00,-30.00
1574.00,62.00,-4207.00,40.00,-10.00,-28.00
1577.00,99.00,-4155.00,33.00,10.00,-33.00
1584.00,83.00,-4157.00,37.00,14.00,-32.00
1562.00,99.00,-4195.00,39.00,-7.00,-32.00
1564.00,61.00,-4189.00,37.00,-1.00,-25.00
1560.00,79.00,-4225.00,30.00,-9.00,-22.00
1575.00,58.00,-4197.00,61.00,-1.00,-29.00
1590.00,70.00,-4197.00,42.00,9.00,-23.00
1575.00,90.00,-4195.00,48.00,9.00,-31.00
1560.00,85.00,-4193.00,28.00,14.00,-21.00
1579.00,93.00,-4174.00,33.00,12.00,-36.00
1597.00,92.00,-4152.00,35.00,1.00,-29.00
1543.00,77.00,-4207.00,32.00,2.00,-26.00
1556.00,82.00,-4202.00,42.00,13.00,-18.00
1579.00,87.00,-4229.00,27.00,6.00,-22.00
1561.00,83.00,-4174.00,35.00,15.00,-20.00
1564.00,88.00,-4207.00,31.00,1.00,-23.00
1590.00,89.00,-4190.00,44.00,1.00,-31.00
1573.00,107.00,-4217.00,37.00,5.00,-28.00
1568.00,70.00,-4193.00,47.00,6.00,-30.00
1579.00,69.00,-4174.00,36.00,0.00,-28.00
1547.00,78.00,-4187.00,39.00,6.00,-27.00
1567.00,95.00,-4201.00,36.00,16.00,-34.00
1567.00,79.00,-4218.00,43.00,2.00,-40.00
1562.00,71.00,-4170.00,49.00,11.00,-33.00
1567.00,74.00,-4211.00,36.00,4.00,-21.00
1591.00,87.00,-4201.00,36.00,3.00,-21.00
1558.00,74.00,-4181.00,35.00,8.00,-35.00
1584.00,71.00,-4182.00,24.00,0.00,-21.00
1559.00,98.00,-4196.00,39.00,4.00,-16.00
1583.00,89.00,-4204.00,31.00,7.00,-29.00
1563.00,70.00,-4201.00,37.00,9.00,-19.00
1564.00,93.00,-4199.00,37.00,7.00,-18.00
1604.00,78.00,-4225.00,30.00,-3.00,-28.00
1554.00,97.00,-4173.00,26.00,7.00,-25.00
1561.00,80.00,-4211.00,40.00,6.00,-27.00
1576.00,84.00,-4201.00,47.00,1.00,-27.00
1558.00,73.00,-4204.00,27.00,3.00,-24.00
1564.00,75.00,-4204.00,37.00,9.00,-25.00
1564.00,119.00,-4210.00,28.00,1.00,-21.00
1589.00,82.00,-4216.00,38.00,1.00,-21.00
1566.00,91.00,-4203.00,34.00,7.00,-24.00
1571.00,87.00,-4166.00,44.00,2.00,-38.00
1575.00,92.00,-4223.00,28.00,-8.00,-17.00
1570.00,102.00,-4179.00,35.00,-2.00,-24.00
1564.00,80.00,-4178.00,42.00,2.00,-22.00
1592.00,84.00,-4230.00,32.00,5.00,-38.00
1541.00,80.00,-4173.00,29.00,-4.00,-34.00
1558.00,63.00,-4197.00,35.00,7.00,-39.00
1549.00,77.00,-4214.00,41.00,2.00,-29.00
1570.00,82.00,-4213.00,38.00,10.00,-28.00
1553.00,87.00,-4187.00,42.00,-5.00,-27.00
1570.00,87.00,-4173.00,31.00,-2.00,-16.00
1553.00,68.00,-4203.00,35.00,14.00,-24.00
1548.00,102.00,-4199.00,38.00,6.00,-31.00
1558.00,85.00,-4197.00,40.00,11.00,-46.00
1575.00,79.00,-4179.00,33.00,14.00,-29.00
1562.00,70.00,-4196.00,40.00,-4.00,-28.00
1555.00,75.00,-4223.00,39.00,13.00,-18.00
1543.00,91.00,-4215.00,33.00,9.00,-28.00
1570.00,80.00,-4215.00,40.00,-6.00,-23.00
1573.00,106.00,-4208.00,45.00,9.00,-28.00
1549.00,95.00,-4206.00,40.00,10.00,-29.00
1568.00,85.00,-4191.00,50.00,-7.00,-30.00
1582.00,101.00,-4190.00,35.00,6.00,-18.00
1571.00,95.00,-4182.00,35.00,-3.00,-37.00
1568.00,86.00,-4204.00,55.00,4.00,-26.00
1547.00,88.00,-4192.00,44.00,4.00,-23.00
1567.00,83.00,-4212.00,48.00,17.00,-22.00
1551.00,65.00,-4185.00,38.00,7.00,-22.00
1556.00,84.00,-4202.00,30.00,-7.00,-33.00
1568.00,71.00,-4175.00,31.00,7.00,-28.00
1568.00,74.00,-4156.00,35.00,14.00,-31.00
1571.00,81.00,-4185.00,31.00,18.00,-18.00
1557.00,73.00,-4188.00,28.00,6.00,-28.00
1586.00,93.00,-4205.00,39.00,2.00,-38.00
1570.00,87.00,-4184.00,45.00,12.00,-29.00
1584.00,94.00,-4193.00,44.00,15.00,-22.00
1563.00,85.00,-4160.00,43.00,1.00,-19.00
1567.00,75.00,-4180.00,30.00,19.00,-24.00
1553.00,76.00,-4210.00,37.00,5.00,-30.00
1546.00,78.00,-4203.00,36.00,-4.00,-32.00
1564.00,65.00,-4205.00,38.00,10.00,-27.00
1577.00,90.00,-4212.00,34.00,-2.00,-28.00
1569.00,92.00,-4234.00,36.00,6.00,-26.00
1554.00,86.00,-4208.00,31.00,7.00,-32.00
1575.00,78.00,-4199.00,37.00,10.00,-22.00
1558.00,95.00,-4173.00,18.00,-6.00,-15.00
1574.00,87.00,-4182.00,35.00,6.00,-21.00
1574.00,96.00,-4203.00,44.00,-1.00,-37.00
1559.00,74.00,-4213.00,39.00,16.00,-22.00
1560.00,70.00,-4216.00,32.00,11.00,-46.00
1569.00,87.00,-4166.00,40.00,-2.00,-27.00
1568.00,80.00,-4173.00,40.00,6.00,-39.00
1560.00,90.00,-4192.00,33.00,2.00,-30.00
1567.00,85.00,-4191.00,44.00,0.00,-20.00
1543.00,83.00,-4205.00,27.00,3.00,-34.00
1564.00,95.00,-4227.00,49.00,-6.00,-40.00
1536.00,66.00,-4223.00,39.00,-2.00,-27.00
1544.00,66.00,-4178.00,26.00,9.00,-17.00
1561.00,64.00,-4180.00,37.00,0.00,-39.00
1571.00,77.00,-4191.00,35.00,1.00,-30.00
1563.00,107.00,-4200.00,35.00,6.00,-31.00
1552.00,81.00,-4183.00,41.00,3.00,-20.00
1588.00,82.00,-4177.00,46.00,4.00,-24.00
1566.00,94.00,-4155.00,39.00,6.00,-32.00
1571.00,82.00,-4193.00,33.00,-2.00,-23.00
1588.00,70.00,-4185.00,32.00,-8.00,-20.00
1560.00,68.00,-4171.00,35.00,-5.00,-21.00
1550.00,93.00,-4195.00,25.00,-8.00,-34.00
1601.00,69.00,-4174.00,45.00,6.00,-29.00
1580.00,95.00,-4193.00,38.00,9.00,-14.00
1568.00,98.00,-4183.00,40.00,-7.00,-28.00
1551.00,103.00,-4186.00,23.00,12.00,-26.00
1575.00,98.00,-4180.00,35.00,13.00,-39.00
1560.00,96.00,-4203.00,37.00,9.00,-28.00
1577.00,83.00,-4185.00,35.00,13.00,-31.00
1547.00,93.00,-4189.00,29.00,5.00,-23.00
1572.00,81.00,-4198.00,32.00,19.00,-35.00
1559.00,87.00,-4188.00,46.00,10.00,-29.00
1558.00,84.00,-4178.00,36.00,6.00,-27.00
1568.00,79.00,-4189.00,34.00,-3.00,-25.00
1556.00,84.00,-4187.00,45.00,6.00,-20.00
1576.00,82.00,-4205.00,44.00,9.00,-35.00
1561.00,91.00,-4190.00,48.00,-6.00,-32.00
1527.00,93.00,-4201.00,24.00,-3.00,-42.00
1558.00,85.00,-4192.00,23.00,3.00,-21.00
1562.00,99.00,-4206.00,42.00,-5.00,-27.00
1540.00,85.00,-4222.00,36.00,3.00,-53.00
1542.00,82.00,-4188.00,32.00,8.00,-31.00
1551.00,66.00,-4174.00,50.00,-5.00,-20.00
1579.00,68.00,-4182.00,34.00,18.00,-32.00
1563.00,83.00,-4212.00,31.00,1.00,-31.00
1566.00,78.00,-4227.00,42.00,4.00,-22.00
1569.00,67.00,-4202.00,46.00,12.00,-20.00
1553.00,94.00,-4202.00,40.00,8.00,-34.00
1575.00,100.00,-4199.00,38.00,6.00,-20.00
1536.00,75.00,-4199.00,31.00,-6.00,-23.00
1540.00,84.00,-4188.00,55.00,10.00,-38.00
1567.00,97.00,-4157.00,30.00,9.00,-28.00
1559.00,100.00,-4180.00,44.00,3.00,-16.00
1566.00,91.00,-4225.00,44.00,-9.00,-24.00
1586.00,74.00,-4153.00,40.00,1.00,-18.00
1591.00,104.00,-4187.00,34.00,6.00,-22.00
1584.00,83.00,-4174.00,44.00,0.00,-34.00
1563.00,79.00,-4210.00,51.00,11.00,-34.00
1563.00,89.00,-4184.00,27.00,10.00,-16.00
1565.00,70.00,-4199.00,29.00,11.00,-35.00
1551.00,75.00,-4203.00,36.00,-9.00,-34.00
1578.00,83.00,-4207.00,38.00,5.00,-35.00
1568.00,85.00,-4195.00,37.00,13.00,-24.00
1547.00,91.00,-4202.00,29.00,2.00,-34.00
1556.00,78.00,-4196.00,23.00,11.00,-25.00
1580.00,67.00,-4202.00,36.00,8.00,-32.00
1533.00,96.00,-4183.00,39.00,5.00,-30.00
1582.00,103.00,-4167.00,43.00,5.00,-37.00
1576.00,80.00,-4203.00,28.00,-2.00,-31.00
1544.00,74.00,-4217.00,63.00,11.00,-36.00
1567.00,71.00,-4186.00,27.00,4.00,-34.00
1562.00,69.00,-4192.00,26.00,5.00,-20.00
1590.00,96.00,-4167.00,32.00,10.00,-23.00
1554.00,77.00,-4183.00,34.00,17.00,-29.00
1551.00,95.00,-4197.00,44.00,15.00,-23.00
1583.00,111.00,-4194.00,34.00,-10.00,-26.00
1558.00,87.00,-4208.00,32.00,11.00,-23.00
1570.00,74.00,-4176.00,47.00,11.00,-32.00
1571.00,96.00,-4196.00,35.00,13.00,-26.00
1573.00,70.00,-4206.00,32.00,18.00,-36.00
1559.00,83.00,-4209.00,37.00,1.00,-36.00
1561.00,75.00,-4181.00,30.00,10.00,-33.00
1564.00,108.00,-4192.00,35.00,-3.00,-22.00
1579.00,72.00,-4183.00,34.00,4.00,-20.00
1539.00,92.00,-4171.00,39.00,6.00,-22.00
1546.00,93.00,-4175.00,27.00,3.00,-25.00
1553.00,102.00,-4181.00,32.00,2.00,-43.00
1564.00,102.00,-4183.00,36.00,-1.00,-30.00
1542.00,91.00,-4174.00,49.00,3.00,-35.00
1550.00,98.00,-4219.00,28.00,2.00,-28.00
1563.00,78.00,-4169.00,39.00,-1.00,-33.00
1578.00,96.00,-4191.00,27.00,-4.00,-32.00
1559.00,76.00,-4182.00,41.00,13.00,-28.00
1583.00,80.00,-4182.00,32.00,1.00,-34.00
1579.00,82.00,-4183.00,48.00,0.00,-25.00
1580.00,62.00,-4199.00,30.00,2.00,-35.00
1566.00,98.00,-4186.00,46.00,9.00,-39.00
1579.00,85.00,-4180.00,32.00,11.00,-26.00
1551.00,88.00,-4173.00,28.00,3.00,-27.00
1570.00,80.00,-4163.00,36.00,7.00,-32.00
1578.00,72.00,-4205.00,45.00,1.00,-32.00
1559.00,101.00,-4219.00,23.00,14.00,-14.00
1564.00,64.00,-4188.00,31.00,3.00,-23.00
1591.00,62.00,-4206.00,40.00,9.00,-21.00
1566.00,83.00,-4236.00,23.00,10.00,-28.00
1566.00,80.00,-4227.00,38.00,13.00,-26.00
1572.00,78.00,-4175.00,45.00,-2.00,-24.00
1563.00,83.00,-4194.00,49.00,-5.00,-39.00
1572.00,88.00,-4210.00,36.00,1.00,-27.00
1552.00,85.00,-4218.00,45.00,-5.00,-29.00
1556.00,80.00,-4208.00,35.00,14.00,-27.00
1565.00,69.00,-4211.00,23.00,5.00,-10.00
1556.00,81.00,-4205.00,32.00,1.00,-16.00
1550.00,89.00,-4203.00,40.00,-1.00,-18.00
1572.00,83.00,-4182.00,61.00,4.00,-36.00
1578.00,101.00,-4186.00,42.00,2.00,-23.00
1588.00,72.00,-4184.00,39.00,0.00,-43.00
1556.00,87.00,-4163.00,26.00,10.00,-26.00
1595.00,82.00,-4194.00,33.00,7.00,-17.00
1574.00,83.00,-4184.00,43.00,-2.00,-37.00
1580.00,94.00,-4195.00,40.00,9.00,-28.00
1565.00,86.00,-4196.00,34.00,3.00,-18.00
1549.00,94.00,-4214.00,31.00,2.00,-24.00
1568.00,80.00,-4194.00,39.00,8.00,-31.00
1566.00,85.00,-4205.00,38.00,13.00,-23.00
1577.00,68.00,-4207.00,34.00,10.00,-21.00
1569.00,91.00,-4225.00,45.00,5.00,-28.00
1569.00,87.00,-4215.00,24.00,3.00,-25.00
1565.00,90.00,-4213.00,42.00,15.00,-29.00
1581.00,63.00,-4216.00,35.00,12.00,-23.00
1564.00,95.00,-4202.00,31.00,4.00,-28.00
1576.00,84.00,-4187.00,44.00,-2.00,-28.00
1567.00,69.00,-4164.00,37.00,9.00,-28.00
1551.00,86.00,-4218.00,39.00,13.00,-27.00
1575.00,73.00,-4190.00,47.00,5.00,-28.00
1548.00,70.00,-4162.00,24.00,10.00,-34.00
1555.00,88.00,-4177.00,35.00,7.00,-27.00
1558.00,102.00,-4172.00,35.00,11.00,-37.00
1562.00,79.00,-4158.00,24.00,2.00,-24.00
1541.00,81.00,-4227.00,41.00,15.00,-33.00
1557.00,83.00,-4211.00,31.00,8.00,-11.00
1549.00,74.00,-4199.00,34.00,16.00,-37.00
1548.00,92.00,-4221.00,30.00,-3.00,-20.00
1558.00,116.00,-4224.00,34.00,12.00,-39.00
1597.00,73.00,-4208.00,37.00,1.00,-45.00
1583.00,78.00,-4214.00,31.00,-2.00,-22.00
1550.00,105.00,-4190.00,37.00,4.00,-33.00
1588.00,109.00,-4210.00,47.00,4.00,-33.00
1561.00,68.00,-4212.00,41.00,2.00,-33.00
1573.00,79.00,-4213.00,16.00,18.00,-34.00
1568.00,84.00,-4190.00,29.00,12.00,-20.00
1589.00,100.00,-4195.00,39.00,-7.00,-28.00
1564.00,92.00,-4158.00,38.00,16.00,-30.00
1566.00,87.00,-4197.00,39.00,-4.00,-25.00
1600.00,107.00,-4194.00,35.00,4.00,-31.00
1560.00,87.00,-4173.00,33.00,2.00,-27.00
1592.00,86.00,-4189.00,40.00,-6.00,-27.00
1591.00,79.00,-4217.00,56.00,4.00,-26.00
1546.00,90.00,-4232.00,29.00,10.00,-19.00
1553.00,96.00,-4197.00,19.00,16.00,-40.00
1559.00,88.00,-4197.00,34.00,16.00,-34.00
1555.00,94.00,-4209.00,33.00,1.00,-25.00
1583.00,68.00,-4217.00,39.00,5.00,-22.00
1574.00,77.00,-4192.00,38.00,6.00,-32.00
1573.00,96.00,-4186.00,31.00,16.00,-23.00
1588.00,86.00,-4185.00,29.00,6.00,-28.00
1543.00,70.00,-4195.00,34.00,-4.00,-22.00
1563.00,71.00,-4220.00,35.00,13.00,-19.00
1559.00,96.00,-4214.00,28.00,8.00,-27.00
1535.00,86.00,-4193.00,49.00,9.00,-28.00
1567.00,74.00,-4201.00,44.00,-5.00,-16.00
1578.00,80.00,-4227.00,32.00,2.00,-28.00
1586.00,91.00,-4179.00,43.00,1.00,-26.00
1589.00,72.00,-4206.00,34.00,10.00,-36.00
1571.00,101.00,-4201.00,35.00,5.00,-28.00
1586.00,61.00,-4186.00,47.00,-5.00,-19.00
1588.00,78.00,-4181.00,38.00,0.00,-26.00
1563.00,105.00,-4205.00,20.00,3.00,-28.00
1564.00,82.00,-4216.00,35.00,-4.00,-29.00
1563.00,101.00,-4212.00,43.00,-8.00,-11.00
1556.00,76.00,-4197.00,49.00,12.00,-32.00
1559.00,93.00,-4192.00,33.00,14.00,-26.00
1582.00,101.00,-4205.00,36.00,-3.00,-36.00
1554.00,105.00,-4165.00,42.00,9.00,-40.00
1572.00,76.00,-4218.00,35.00,-2.00,-32.00
1585.00,78.00,-4200.00,44.00,-9.00,-37.00
1575.00,98.00,-4184.00,41.00,1.00,-24.00
1571.00,70.00,-4188.00,40.00,8.00,-34.00
1563.00,72.00,-4162.00,46.00,2.00,-21.00
1556.00,82.00,-4207.00,32.00,6.00,-34.00
1597.00,82.00,-4214.00,30.00,9.00,-23.00
1548.00,93.00,-4195.00,43.00,14.00,-35.00
1566.00,88.00,-4214.00,39.00,9.00,-32.00
1580.00,91.00,-4186.00,43.00,2.00,-27.00
1585.00,109.00,-4194.00,27.00,-2.00,-27.00
1561.00,68.00,-4186.00,41.00,0.00,-31.00
1590.00,57.00,-4162.00,44.00,1.00,-32.00
1580.00,97.00,-4179.00,42.00,4.00,-31.00
1575.00,71.00,-4191.00,38.00,2.00,-34.00
1572.00,89.00,-4220.00,27.00,11.00,-25.00
1582.00,89.00,-4193.00,36.00,8.00,-25.00
1560.00,57.00,-4175.00,39.00,8.00,-31.00
1585.00,87.00,-4198.00,39.00,-1.00,-28.00
1559.00,97.00,-4204.00,46.00,13.00,-31.00
1554.00,104.00,-4176.00,38.00,3.00,-9.00
1558.00,70.00,-4190.00,25.00,1.00,-32.00
1580.00,95.00,-4233.00,41.00,14.00,-28.00
1563.00,94.00,-4179.00,31.00,-2.00,-35.00
1575.00,85.00,-4196.00,45.00,0.00,-30.00
1561.00,93.00,-4202.00,38.00,12.00,-30.00
1563.00,88.00,-4152.00,32.00,-5.00,-19.00
1574.00,88.00,-4225.00,34.00,8.00,-25.00
1578.00,81.00,-4237.00,48.00,7.00,-45.00
1605.00,66.00,-4152.00,38.00,9.00,-23.00
1560.00,66.00,-4148.00,44.00,-4.00,-24.00
1536.00,101.00,-4195.00,36.00,-7.00,-24.00
1561.00,98.00,-4165.00,37.00,10.00,-40.00
1590.00,82.00,-4209.00,31.00,13.00,-19.00
1559.00,79.00,-4183.00,39.00,2.00,-31.00
1538.00,76.00,-4210.00,39.00,7.00,-39.00
1583.00,105.00,-4225.00,23.00,-9.00,-33.00
1610.00,121.00,-4184.00,15.00,24.00,-26.00
1550.00,65.00,-4179.00,32.00,-1.00,-24.00
1554.00,42.00,-4187.00,28.00,8.00,-16.00
1588.00,66.00,-4216.00,41.00,14.00,-40.00
1549.00,86.00,-4176.00,58.00,-12.00,-2.00
1558.00,91.00,-4199.00,32.00,5.00,-26.00
1594.00,74.00,-4227.00,39.00,34.00,-40.00
1570.00,74.00,-4196.00,35.00,-22.00,-33.00
1559.00,72.00,-4190.00,26.00,-1.00,-23.00
1571.00,56.00,-4149.00,22.00,24.00,-42.00
1563.00,81.00,-4168.00,29.00,-14.00,-13.00
1547.00,93.00,-4211.00,44.00,1.00,-19.00
1576.00,84.00,-4169.00,34.00,30.00,-27.00
1556.00,70.00,-4200.00,37.00,-3.00,-22.00
1566.00,96.00,-4176.00,41.00,19.00,-33.00
1558.00,84.00,-4182.00,56.00,22.00,-16.00
1548.00,89.00,-4198.00,42.00,2.00,-18.00
1563.00,116.00,-4190.00,24.00,-9.00,-25.00
1548.00,92.00,-4191.00,37.00,2.00,-40.00
1580.00,77.00,-4187.00,41.00,11.00,-26.00
1539.00,91.00,-4184.00,40.00,8.00,-20.00
1560.00,84.00,-4210.00,39.00,0.00,-37.00
1567.00,52.00,-4177.00,30.00,-2.00,-22.00
1561.00,83.00,-4202.00,47.00,8.00,-27.00
1573.00,80.00,-4193.00,38.00,-2.00,-35.00
1586.00,79.00,-4208.00,55.00,8.00,-37.00
1554.00,64.00,-4207.00,30.00,5.00,-33.00
1589.00,64.00,-4179.00,29.00,16.00,-43.00
1583.00,88.00,-4204.00,17.00,0.00,-27.00
1562.00,79.00,-4183.00,26.00,11.00,-28.00
1575.00,76.00,-4199.00,48.00,3.00,-26.00
1551.00,92.00,-4178.00,44.00,5.00,-26.00
1556.00,85.00,-4191.00,37.00,-9.00,-28.00
1551.00,66.00,-4193.00,20.00,7.00,-30.00
1562.00,116.00,-4189.00,44.00,-2.00,-25.00
1554.00,72.00,-4193.00,46.00,-1.00,-20.00
1564.00,80.00,-4184.00,45.00,7.00,-24.00
1583.00,77.00,-4212.00,36.00,11.00,-28.00
1546.00,78.00,-4174.00,26.00,8.00,-28.00
1564.00,91.00,-4205.00,38.00,16.00,-31.00
1548.00,67.00,-4190.00,35.00,-7.00,-38.00
1575.00,65.00,-4193.00,26.00,9.00,-33.00
1565.00,55.00,-4212.00,45.00,2.00,-40.00
1566.00,89.00,-4195.00,28.00,6.00,-31.00
1564.00,97.00,-4190.00,33.00,-3.00,-51.00
1539.00,62.00,-4177.00,40.00,10.00,-26.00
1561.00,81.00,-4183.00,36.00,5.00,-21.00
1564.00,82.00,-4192.00,37.00,5.00,-21.00
1542.00,73.00,-4173.00,36.00,-5.00,-36.00
1589.00,67.00,-4196.00,46.00,13.00,-38.00
1559.00,85.00,-4224.00,44.00,12.00,-22.00
1546.00,78.00,-4206.00,47.00,12.00,-35.00
1538.00,91.00,-4205.00,48.00,7.00,-32.00
1566.00,98.00,-4226.00,42.00,1.00,-32.00
1573.00,93.00,-4212.00,45.00,30.00,-35.00
1559.00,105.00,-4216.00,44.00,39.00,-33.00
1584.00,65.00,-4195.00,35.00,39.00,-19.00
1530.00,104.00,-4199.00,33.00,33.00,-20.00
1553.00,129.00,-4235.00,47.00,57.00,-16.00
1566.00,40.00,-4191.00,37.00,55.00,-34.00
1570.00,76.00,-4228.00,67.00,103.00,-23.00
1537.00,83.00,-4232.00,90.00,89.00,-31.00
1393.00,13.00,-4551.00,59.00,170.00,-61.00
1523.00,108.00,-4149.00,82.00,111.00,-37.00
1438.00,-26.00,-4076.00,218.00,155.00,-111.00
1383.00,25.00,-4293.00,118.00,200.00,-52.00
1580.00,95.00,-3926.00,4.00,49.00,-193.00
1459.00,62.00,-4358.00,75.00,169.00,-222.00
1634.00,135.00,-4083.00,143.00,94.00,-163.00
1448.00,75.00,-4297.00,123.00,8.00,-183.00
1447.00,15.00,-4035.00,60.00,101.00,-221.00
1385.00,-86.00,-4280.00,158.00,97.00,-238.00
1516.00,-43.00,-4200.00,215.00,82.00,-183.00
1445.00,140.00,-4236.00,130.00,112.00,-145.00
1433.00,139.00,-4121.00,169.00,93.00,-227.00
1268.00,-42.00,-4240.00,169.00,160.00,-274.00
1464.00,-4.00,-4195.00,202.00,249.00,-185.00
1667.00,103.00,-4270.00,228.00,224.00,-97.00
1701.00,71.00,-4110.00,215.00,272.00,-161.00
1520.00,168.00,-4250.00,52.00,189.00,-246.00
1469.00,142.00,-4116.00,58.00,44.00,-219.00
1480.00,111.00,-4354.00,109.00,75.00,-233.00
1472.00,24.00,-4141.00,198.00,7.00,-189.00
1484.00,62.00,-4322.00,-157.00,5.00,-200.00
1621.00,-33.00,-4378.00,67.00,-40.00,-207.00
1512.00,48.00,-4175.00,157.00,-78.00,-104.00
1611.00,95.00,-3915.00,45.00,-26.00,-111.00
1524.00,32.00,-4332.00,80.00,73.00,-159.00
1681.00,152.00,-4091.00,59.00,-10.00,2.00
1712.00,283.00,-4403.00,11.00,114.00,-62.00
1784.00,142.00,-4266.00,-216.00,-17.00,-167.00
1568.00,57.00,-4044.00,-55.00,-108.00,-155.00
1448.00,-13.00,-4048.00,343.00,-42.00,-16.00
1688.00,154.00,-4123.00,239.00,33.00,75.00
1529.00,133.00,-4358.00,-86.00,-128.00,-54.00
1392.00,47.00,-4423.00,-52.00,-86.00,-64.00
1582.00,61.00,-4074.00,51.00,-137.00,-2.00
1758.00,211.00,-4061.00,47.00,-127.00,93.00
1533.00,164.00,-4082.00,-153.00,-144.00,52.00
1547.00,232.00,-4289.00,-212.00,23.00,-11.00
1632.00,105.00,-4404.00,197.00,-33.00,248.00
1613.00,208.00,-3940.00,182.00,136.00,222.00
1738.00,237.00,-4064.00,-134.00,108.00,288.00
1520.00,118.00,-4301.00,-247.00,131.00,263.00
1437.00,82.00,-4322.00,181.00,-12.00,457.00
1273.00,334.00,-3939.00,-32.00,-158.00,604.00
1518.00,300.00,-3862.00,-176.00,-35.00,567.00
1971.00,34.00,-4540.00,-364.00,-104.00,481.00
1491.00,2.00,-4331.00,-323.00,-564.00,748.00
1278.00,214.00,-4241.00,-50.00,-281.00,731.00
1692.00,15.00,-4471.00,-244.00,-510.00,641.00
1692.00,-20.00,-3981.00,-493.00,-295.00,620.00
1688.00,-74.00,-4259.00,-223.00,-511.00,621.00
1709.00,-222.00,-4303.00,-30.00,-491.00,539.00
1411.00,-90.00,-4150.00,-185.00,-457.00,377.00
1455.00,-5.00,-4281.00,-261.00,-455.00,318.00
1348.00,88.00,-4055.00,-155.00,-487.00,262.00
1703.00,-145.00,-4292.00,-64.00,-643.00,102.00
1370.00,-137.00,-4330.00,-263.00,-664.00,206.00
1172.00,208.00,-3681.00,-155.00,-630.00,53.00
1326.00,72.00,-4287.00,-50.00,-620.00,1.00
1632.00,-57.00,-3835.00,70.00,-721.00,140.00
1454.00,254.00,-4435.00,-484.00,-735.00,162.00
1689.00,248.00,-4376.00,-101.00,-841.00,110.00
1484.00,-149.00,-4314.00,229.00,-895.00,236.00
1438.00,-35.00,-4158.00,-65.00,-910.00,184.00
1589.00,67.00,-4316.00,-45.00,-836.00,283.00
1311.00,314.00,-4264.00,-75.00,-992.00,200.00
1336.00,-138.00,-4312.00,41.00,-820.00,83.00
1626.00,-28.00,-4103.00,-87.00,-811.00,184.00
1563.00,258.00,-4385.00,-198.00,-755.00,201.00
1586.00,152.00,-4114.00,-94.00,-953.00,129.00
1244.00,-56.00,-4345.00,-58.00,-922.00,263.00
1143.00,368.00,-4270.00,-283.00,-760.00,193.00
1414.00,470.00,-4443.00,-148.00,-758.00,291.00
1705.00,396.00,-4199.00,-285.00,-755.00,413.00
1634.00,199.00,-4361.00,-361.00,-742.00,395.00
1452.00,-26.00,-4204.00,-282.00,-1032.00,573.00
1465.00,323.00,-4232.00,-66.00,-1073.00,828.00
1394.00,299.00,-4572.00,-414.00,-974.00,689.00
1735.00,-72.00,-4548.00,-283.00,-896.00,671.00
1451.00,202.00,-4304.00,-204.00,-1147.00,793.00
1349.00,-184.00,-4212.00,-93.00,-1063.00,850.00
1212.00,15.00,-4117.00,-278.00,-1128.00,716.00
1471.00,48.00,-4625.00,-94.00,-1073.00,822.00
1343.00,66.00,-4071.00,-340.00,-1122.00,792.00
1207.00,396.00,-4316.00,-357.00,-1018.00,758.00
1450.00,50.00,-4443.00,-214.00,-1079.00,817.00
1307.00,-11.00,-4100.00,-76.00,-1077.00,881.00
1495.00,122.00,-4761.00,-140.00,-1097.00,830.00
1429.00,141.00,-4451.00,-499.00,-1178.00,694.00
1167.00,-18.00,-3902.00,-282.00,-1292.00,683.00
1173.00,-62.00,-4282.00,-111.00,-1315.00,687.00
1025.00,263.00,-4310.00,-133.00,-1386.00,571.00
1223.00,-406.00,-4513.00,43.00,-1268.00,612.00
1329.00,-86.00,-4655.00,59.00,-1375.00,432.00
1440.00,-49.00,-4529.00,-164.00,-1329.00,468.00
1526.00,96.00,-4750.00,-279.00,-1238.00,404.00
1508.00,-108.00,-4678.00,70.00,-1230.00,376.00
1213.00,-115.00,-4609.00,-124.00,-1307.00,254.00
1210.00,218.00,-4314.00,-224.00,-1432.00,107.00
728.00,23.00,-4044.00,116.00,-1585.00,134.00
957.00,54.00,-3871.00,75.00,-1573.00,73.00
1399.00,-47.00,-4267.00,-232.00,-1694.00,10.00
1115.00,95.00,-4186.00,-58.00,-1807.00,18.00
465.00,93.00,-3942.00,-50.00,-1763.00,-77.00
789.00,-137.00,-3550.00,-3.00,-1850.00,-135.00
1027.00,181.00,-5249.00,-157.00,-1714.00,-77.00
1219.00,66.00,-4472.00,186.00,-1897.00,-114.00
783.00,1.00,-4379.00,-66.00,-1666.00,-57.00
1372.00,-212.00,-4888.00,271.00,-1546.00,-135.00
1166.00,72.00,-4721.00,-30.00,-1463.00,-183.00
1240.00,380.00,-4356.00,-507.00,-1574.00,-282.00
1222.00,-30.00,-4427.00,305.00,-1435.00,-192.00
1017.00,124.00,-4446.00,-12.00,-1628.00,-252.00
875.00,233.00,-4536.00,-32.00,-1660.00,-235.00
881.00,130.00,-4304.00,80.00,-1612.00,-311.00
850.00,72.00,-4135.00,-241.00,-1586.00,-363.00
1038.00,252.00,-4555.00,-243.00,-1586.00,-319.00
958.00,174.00,-4377.00,124.00,-1517.00,-165.00
697.00,170.00,-4254.00,-67.00,-1605.00,-259.00
777.00,149.00,-4050.00,-150.00,-1593.00,-201.00
875.00,59.00,-4160.00,54.00,-1522.00,-165.00
794.00,84.00,-4337.00,143.00,-1582.00,-161.00
981.00,216.00,-4517.00,-80.00,-1604.00,-159.00
1128.00,-19.00,-4410.00,98.00,-1538.00,-95.00
1019.00,187.00,-4459.00,61.00,-1690.00,-92.00
700.00,55.00,-4673.00,114.00,-1783.00,-65.00
792.00,254.00,-4722.00,-32.00,-1710.00,-65.00
855.00,182.00,-4254.00,-21.00,-1647.00,-44.00
840.00,54.00,-4606.00,1.00,-1642.00,-64.00
585.00,135.00,-4437.00,16.00,-1664.00,-68.00
550.00,151.00,-4578.00,-127.00,-1458.00,-153.00
603.00,60.00,-4512.00,-142.00,-1561.00,-137.00
683.00,46.00,-4570.00,41.00,-1359.00,-158.00
622.00,-11.00,-4446.00,131.00,-1307.00,-182.00
655.00,139.00,-4621.00,20.00,-1115.00,-188.00
522.00,163.00,-4362.00,-17.00,-1142.00,-321.00
492.00,188.00,-4451.00,-145.00,-1050.00,-313.00
496.00,165.00,-4506.00,-11.00,-946.00,-313.00
505.00,165.00,-4517.00,59.00,-891.00,-295.00
548.00,237.00,-4514.00,-142.00,-828.00,-301.00
542.00,164.00,-4253.00,-43.00,-790.00,-329.00
623.00,216.00,-4437.00,14.00,-692.00,-259.00
674.00,185.00,-4536.00,72.00,-680.00,-294.00
619.00,129.00,-4553.00,-18.00,-575.00,-243.00
561.00,180.00,-4548.00,84.00,-507.00,-225.00
395.00,225.00,-4436.00,90.00,-515.00,-220.00
413.00,192.00,-4362.00,25.00,-531.00,-245.00
576.00,183.00,-4476.00,24.00,-455.00,-165.00
620.00,227.00,-4459.00,1.00,-466.00,-100.00
603.00,208.00,-4332.00,13.00,-487.00,-51.00
501.00,116.00,-4421.00,33.00,-499.00,6.00
374.00,100.00,-4421.00,-43.00,-490.00,29.00
403.00,135.00,-4492.00,-13.00,-474.00,-5.00
455.00,122.00,-4439.00,41.00,-483.00,-75.00
435.00,93.00,-4453.00,65.00,-445.00,-107.00
445.00,155.00,-4412.00,18.00,-468.00,-92.00
450.00,162.00,-4384.00,33.00,-480.00,-73.00
437.00,121.00,-4404.00,26.00,-476.00,-59.00
506.00,103.00,-4534.00,-6.00,-414.00,2.00
528.00,159.00,-4437.00,21.00,-504.00,-60.00
359.00,114.00,-4475.00,84.00,-495.00,-113.00
339.00,90.00,-4455.00,53.00,-484.00,-158.00
268.00,93.00,-4447.00,20.00,-507.00,-162.00
300.00,103.00,-4489.00,25.00,-481.00,-177.00
380.00,112.00,-4438.00,39.00,-460.00,-192.00
433.00,130.00,-4426.00,27.00,-494.00,-195.00
445.00,133.00,-4398.00,16.00,-546.00,-237.00
385.00,106.00,-4411.00,60.00,-539.00,-237.00
363.00,56.00,-4344.00,48.00,-606.00,-271.00
334.00,122.00,-4373.00,-47.00,-647.00,-278.00
416.00,119.00,-4422.00,5.00,-638.00,-307.00
436.00,35.00,-4457.00,84.00,-639.00,-360.00
212.00,91.00,-4574.00,81.00,-593.00,-375.00
357.00,82.00,-4528.00,12.00,-569.00,-444.00
287.00,113.00,-4394.00,18.00,-568.00,-452.00
261.00,183.00,-4237.00,15.00,-585.00,-423.00
426.00,147.00,-4553.00,-64.00,-543.00,-409.00
418.00,118.00,-4399.00,48.00,-595.00,-395.00
351.00,171.00,-4457.00,79.00,-551.00,-353.00
191.00,153.00,-4301.00,175.00,-595.00,-364.00
286.00,123.00,-4406.00,-19.00,-564.00,-381.00
455.00,96.00,-4545.00,0.00,-546.00,-381.00
274.00,75.00,-4513.00,21.00,-538.00,-302.00
252.00,59.00,-4356.00,57.00,-520.00,-343.00
316.00,113.00,-4545.00,-58.00,-472.00,-301.00
350.00,183.00,-4410.00,24.00,-498.00,-303.00
218.00,138.00,-4522.00,75.00,-504.00,-268.00
317.00,113.00,-4424.00,62.00,-408.00,-271.00
281.00,174.00,-4621.00,-12.00,-400.00,-263.00
212.00,201.00,-4483.00,36.00,-357.00,-279.00
173.00,185.00,-4616.00,32.00,-230.00,-244.00
231.00,195.00,-4359.00,13.00,-236.00,-274.00
217.00,199.00,-4603.00,19.00,-124.00,-180.00
284.00,251.00,-4335.00,38.00,-153.00,-171.00
235.00,217.00,-4538.00,75.00,-129.00,-98.00
263.00,285.00,-4369.00,16.00,-140.00,-61.00
183.00,248.00,-4533.00,30.00,-76.00,-19.00
199.00,114.00,-4514.00,33.00,-41.00,-11.00
210.00,84.00,-4522.00,15.00,-2.00,0.00
246.00,179.00,-4469.00,37.00,43.00,4.00
274.00,141.00,-4426.00,83.00,15.00,-77.00
280.00,97.00,-4393.00,53.00,-45.00,-119.00
331.00,88.00,-4338.00,11.00,-35.00,-124.00
434.00,156.00,-4316.00,16.00,-93.00,-75.00
313.00,159.00,-4282.00,-7.00,-254.00,-46.00
221.00,159.00,-4322.00,-23.00,-322.00,-20.00
236.00,165.00,-4380.00,15.00,-369.00,-36.00
274.00,148.00,-4446.00,18.00,-381.00,-56.00
244.00,122.00,-4516.00,-6.00,-332.00,-15.00
139.00,160.00,-4531.00,-20.00,-273.00,4.00
119.00,172.00,-4597.00,22.00,-208.00,-24.00
148.00,127.00,-4537.00,60.00,-142.00,-22.00
192.00,136.00,-4539.00,44.00,-55.00,-46.00
234.00,176.00,-4443.00,45.00,-16.00,-52.00
221.00,175.00,-4423.00,46.00,-8.00,-43.00
285.00,150.00,-4405.00,63.00,-25.00,-35.00
240.00,110.00,-4345.00,38.00,-36.00,-33.00
227.00,160.00,-4410.00,29.00,-65.00,-21.00
369.00,131.00,-4758.00,-106.00,5.00,-34.00
219.00,195.00,-4586.00,24.00,-32.00,-58.00
200.00,141.00,-4404.00,71.00,-22.00,-20.00
213.00,174.00,-4394.00,24.00,-10.00,-47.00
255.00,175.00,-4445.00,-37.00,-52.00,-39.00
242.00,14.00,-4267.00,72.00,-38.00,-73.00
177.00,234.00,-4488.00,97.00,27.00,32.00
232.00,152.00,-4430.00,11.00,14.00,-43.00
253.00,125.00,-4462.00,33.00,12.00,-19.00
240.00,143.00,-4412.00,18.00,15.00,-30.00
232.00,157.00,-4448.00,59.00,35.00,-9.00
231.00,115.00,-4479.00,36.00,-5.00,-47.00
241.00,156.00,-4519.00,23.00,3.00,-32.00
298.00,137.00,-4464.00,42.00,-11.00,-63.00
201.00,114.00,-4412.00,60.00,-39.00,-17.00
243.00,177.00,-4454.00,9.00,-6.00,-22.00
252.00,155.00,-4436.00,55.00,15.00,-34.00
221.00,161.00,-4417.00,27.00,-11.00,-38.00
224.00,145.00,-4395.00,44.00,-26.00,-16.00
210.00,141.00,-4442.00,35.00,-10.00,-42.00
219.00,165.00,-4392.00,35.00,-37.00,-17.00
224.00,136.00,-4426.00,48.00,-26.00,-24.00
231.00,139.00,-4420.00,34.00,11.00,-31.00
209.00,167.00,-4462.00,55.00,-29.00,-21.00
231.00,132.00,-4475.00,28.00,-17.00,-43.00
244.00,146.00,-4391.00,55.00,3.00,-37.00
213.00,156.00,-4423.00,40.00,12.00,-18.00
238.00,143.00,-4465.00,29.00,22.00,-20.00
224.00,168.00,-4416.00,39.00,20.00,-34.00
228.00,136.00,-4436.00,48.00,8.00,-33.00
258.00,140.00,-4449.00,48.00,18.00,-29.00
201.00,143.00,-4370.00,36.00,-34.00,-23.00
194.00,171.00,-4450.00,30.00,0.00,-8.00
277.00,168.00,-4435.00,36.00,34.00,-26.00
221.00,153.00,-4452.00,48.00,-40.00,-43.00
213.00,144.00,-4428.00,35.00,-8.00,-12.00
222.00,168.00,-4408.00,33.00,-3.00,-35.00
253.00,129.00,-4432.00,33.00,-3.00,-37.00
226.00,127.00,-4491.00,53.00,-3.00,-27.00
215.00,159.00,-4427.00,28.00,12.00,-25.00
234.00,159.00,-4458.00,39.00,-2.00,-24.00
225.00,131.00,-4454.00,57.00,-5.00,-31.00
229.00,170.00,-4448.00,30.00,-7.00,-26.00
221.00,137.00,-4443.00,40.00,19.00,-38.00
233.00,149.00,-4462.00,37.00,16.00,-32.00
209.00,149.00,-4428.00,37.00,0.00,-27.00
231.00,153.00,-4454.00,34.00,5.00,-35.00
233.00,163.00,-4439.00,30.00,2.00,-27.00
237.00,140.00,-4414.00,43.00,5.00,-33.00
231.00,140.00,-4428.00,30.00,9.00,-21.00
250.00,162.00,-4459.00,47.00,-4.00,-34.00
241.00,133.00,-4418.00,35.00,7.00,-35.00
217.00,152.00,-4434.00,39.00,5.00,-24.00
246.00,143.00,-4452.00,47.00,6.00,-30.00
235.00,129.00,-4453.00,45.00,6.00,-20.00
218.00,139.00,-4442.00,42.00,8.00,-28.00
237.00,149.00,-4442.00,27.00,9.00,-38.00
226.00,152.00,-4457.00,34.00,15.00,-42.00
234.00,133.00,-4452.00,42.00,8.00,-28.00
256.00,157.00,-4464.00,40.00,10.00,-23.00
215.00,136.00,-4445.00,45.00,8.00,-23.00
240.00,130.00,-4434.00,42.00,6.00,-17.00
250.00,147.00,-4426.00,35.00,-2.00,-41.00
235.00,165.00,-4417.00,38.00,11.00,-40.00
216.00,166.00,-4444.00,48.00,1.00,-25.00
223.00,142.00,-4454.00,46.00,-1.00,-32.00
222.00,133.00,-4410.00,37.00,19.00,-30.00
232.00,142.00,-4425.00,41.00,11.00,-24.00
228.00,137.00,-4475.00,40.00,8.00,-32.00
238.00,153.00,-4436.00,47.00,5.00,-32.00
236.00,151.00,-4418.00,48.00,9.00,-31.00
219.00,148.00,-4427.00,32.00,5.00,-22.00
242.00,150.00,-4435.00,44.00,12.00,-13.00
240.00,150.00,-4434.00,46.00,0.00,-39.00
218.00,143.00,-4464.00,31.00,16.00,-25.00
197.00,143.00,-4422.00,48.00,8.00,-36.00
237.00,157.00,-4425.00,29.00,10.00,-29.00
222.00,132.00,-4456.00,33.00,12.00,-38.00
253.00,149.00,-4444.00,38.00,12.00,-29.00
222.00,128.00,-4436.00,56.00,17.00,-35.00
245.00,161.00,-4427.00,30.00,11.00,-33.00
257.00,146.00,-4442.00,34.00,9.00,-23.00
201.00,167.00,-4426.00,41.00,16.00,-27.00
240.00,151.00,-4412.00,31.00,2.00,-32.00
235.00,134.00,-4426.00,42.00,0.00,-36.00
241.00,154.00,-4409.00,43.00,-1.00,-22.00
238.00,150.00,-4447.00,27.00,-5.00,-28.00
220.00,150.00,-4467.00,25.00,1.00,-25.00
238.00,165.00,-4454.00,48.00,5.00,-39.00
225.00,151.00,-4408.00,31.00,19.00,-16.00
245.00,133.00,-4444.00,28.00,27.00,-26.00
219.00,136.00,-4418.00,36.00,10.00,-28.00
227.00,117.00,-4409.00,35.00,11.00,-26.00
255.00,150.00,-4487.00,34.00,17.00,-33.00
252.00,163.00,-4421.00,42.00,3.00,-34.00
242.00,161.00,-4449.00,27.00,8.00,-21.00
233.00,171.00,-4408.00,36.00,4.00,-15.00
229.00,151.00,-4447.00,37.00,3.00,-26.00
221.00,153.00,-4411.00,40.00,6.00,-20.00
261.00,146.00,-4444.00,49.00,19.00,-21.00
229.00,155.00,-4449.00,40.00,6.00,-32.00
230.00,143.00,-4448.00,42.00,22.00,-30.00
251.00,145.00,-4427.00,38.00,11.00,-29.00
216.00,124.00,-4440.00,34.00,12.00,-25.00
236.00,169.00,-4429.00,39.00,0.00,-15.00
238.00,170.00,-4461.00,25.00,5.00,-29.00
201.00,143.00,-4449.00,22.00,6.00,-34.00
221.00,158.00,-4450.00,36.00,4.00,-32.00
245.00,154.00,-4410.00,25.00,7.00,-15.00
216.00,159.00,-4429.00,39.00,-4.00,-29.00
239.00,150.00,-4424.00,58.00,3.00,-27.00
205.00,150.00,-4421.00,43.00,6.00,-19.00
237.00,144.00,-4410.00,43.00,3.00,-28.00
227.00,181.00,-4437.00,23.00,12.00,-35.00
231.00,148.00,-4424.00,40.00,1.00,-22.00
238.00,148.00,-4447.00,29.00,11.00,-39.00
250.00,138.00,-4455.00,32.00,2.00,-32.00
235.00,166.00,-4450.00,48.00,5.00,-29.00
217.00,120.00,-4453.00,44.00,8.00,-40.00
240.00,118.00,-4424.00,50.00,6.00,-33.00
259.00,152.00,-4460.00,47.00,2.00,-25.00
219.00,142.00,-4439.00,33.00,0.00,-36.00
239.00,149.00,-4451.00,20.00,3.00,-35.00
217.00,164.00,-4433.00,39.00,7.00,-31.00
209.00,151.00,-4445.00,24.00,12.00,-38.00
234.00,143.00,-4434.00,29.00,7.00,-26.00
234.00,158.00,-4456.00,45.00,18.00,-24.00
214.00,148.00,-4461.00,46.00,4.00,-36.00
218.00,149.00,-4435.00,39.00,1.00,-33.00
240.00,151.00,-4434.00,32.00,6.00,-33.00
242.00,139.00,-4451.00,27.00,2.00,-30.00
246.00,149.00,-4439.00,34.00,2.00,-22.00
230.00,146.00,-4439.00,43.00,2.00,-22.00
225.00,166.00,-4433.00,43.00,15.00,-27.00
245.00,148.00,-4440.00,34.00,4.00,-27.00
215.00,153.00,-4439.00,42.00,5.00,-41.00
232.00,171.00,-4443.00,42.00,9.00,-27.00
250.00,134.00,-4465.00,33.00,-5.00,-31.00
235.00,155.00,-4433.00,27.00,8.00,-24.00
228.00,143.00,-4432.00,36.00,6.00,-36.00
229.00,147.00,-4438.00,29.00,0.00,-22.00
224.00,134.00,-4406.00,40.00,13.00,-38.00
242.00,155.00,-4436.00,27.00,8.00,-36.00
249.00,138.00,-4446.00,39.00,-10.00,-31.00
229.00,134.00,-4467.00,37.00,9.00,-24.00
239.00,152.00,-4418.00,42.00,2.00,-23.00
250.00,156.00,-4425.00,40.00,2.00,-23.00
232.00,145.00,-4430.00,30.00,6.00,-29.00
229.00,125.00,-4419.00,44.00,13.00,-27.00
259.00,162.00,-4442.00,36.00,8.00,-33.00
230.00,157.00,-4414.00,38.00,2.00,-25.00
244.00,140.00,-4478.00,37.00,16.00,-32.00
239.00,151.00,-4419.00,22.00,9.00,-33.00
202.00,122.00,-4445.00,25.00,15.00,-28.00
243.00,154.00,-4419.00,45.00,8.00,-32.00
257.00,147.00,-4444.00,30.00,-4.00,-37.00
236.00,152.00,-4436.00,30.00,-3.00,-28.00
267.00,137.00,-4479.00,34.00,8.00,-19.00
219.00,171.00,-4431.00,43.00,14.00,-31.00
225.00,143.00,-4443.00,41.00,10.00,-35.00
222.00,147.00,-4420.00,44.00,17.00,-45.00
240.00,134.00,-4415.00,32.00,2.00,-40.00
231.00,141.00,-4469.00,53.00,13.00,-29.00
229.00,146.00,-4462.00,35.00,-2.00,-29.00
217.00,134.00,-4423.00,34.00,3.00,-29.00
225.00,140.00,-4459.00,37.00,3.00,-30.00
246.00,151.00,-4439.00,25.00,4.00,-32.00
241.00,144.00,-4425.00,29.00,12.00,-43.00
232.00,158.00,-4435.00,33.00,21.00,-21.00
251.00,158.00,-4454.00,30.00,11.00,-24.00
222.00,163.00,-4443.00,23.00,-3.00,-17.00
223.00,133.00,-4459.00,53.00,8.00,-20.00
221.00,133.00,-4425.00,32.00,12.00,-26.00
265.00,161.00,-4452.00,45.00,-2.00,-23.00
215.00,160.00,-4454.00,41.00,9.00,-34.00
241.00,166.00,-4437.00,35.00,6.00,-34.00
234.00,147.00,-4444.00,28.00,10.00,-28.00
223.00,148.00,-4446.00,36.00,3.00,-27.00
259.00,163.00,-4450.00,45.00,8.00,-27.00
247.00,138.00,-4462.00,40.00,9.00,-25.00
236.00,134.00,-4422.00,23.00,-7.00,-24.00
222.00,142.00,-4453.00,28.00,19.00,-22.00
225.00,142.00,-4426.00,28.00,16.00,-36.00
228.00,148.00,-4405.00,45.00,6.00,-30.00
237.00,140.00,-4439.00,31.00,11.00,-34.00
240.00,150.00,-4431.00,38.00,13.00,-25.00
219.00,144.00,-4450.00,40.00,7.00,-14.00
229.00,139.00,-4456.00,52.00,5.00,-33.00
253.00,146.00,-4445.00,41.00,11.00,-28.00
244.00,160.00,-4418.00,29.00,10.00,-24.00
259.00,160.00,-4444.00,39.00,0.00,-34.00
236.00,142.00,-4458.00,43.00,8.00,-24.00
227.00,145.00,-4454.00,35.00,5.00,-25.00
249.00,142.00,-4439.00,31.00,6.00,-27.00
239.00,132.00,-4425.00,32.00,-4.00,-26.00
230.00,139.00,-4414.00,41.00,-7.00,-21.00
250.00,172.00,-4435.00,45.00,3.00,-25.00
243.00,146.00,-4402.00,40.00,-5.00,-26.00
245.00,129.00,-4446.00,38.00,10.00,-31.00
235.00,138.00,-4440.00,51.00,17.00,-25.00
229.00,147.00,-4430.00,40.00,7.00,-24.00
256.00,141.00,-4453.00,40.00,3.00,-28.00
245.00,153.00,-4447.00,38.00,5.00,-20.00
222.00,140.00,-4410.00,30.00,18.00,-31.00
257.00,142.00,-4458.00,22.00,7.00,-18.00
214.00,161.00,-4440.00,36.00,3.00,-28.00
231.00,162.00,-4424.00,47.00,5.00,-18.00
226.00,145.00,-4443.00,35.00,-1.00,-16.00
213.00,128.00,-4444.00,58.00,-1.00,-24.00
239.00,135.00,-4438.00,35.00,5.00,-38.00
235.00,154.00,-4478.00,46.00,15.00,-33.00
217.00,158.00,-4468.00,20.00,14.00,-15.00
228.00,148.00,-4438.00,38.00,8.00,-30.00
230.00,166.00,-4447.00,43.00,13.00,-24.00
260.00,131.00,-4443.00,55.00,8.00,-14.00
255.00,150.00,-4433.00,53.00,13.00,-19.00
226.00,143.00,-4421.00,38.00,-9.00,-29.00
